 0102    Rigaku R-XAS Looper
Au                23/11/2023 13:30 -
Comment    :  exafstest
Sample     :  test
Operator   :  exafs
core       :  Cu
edge       :  K
XG         :  20 kV    30 mA
Filament   :  LaB6
Target     :  Mo
Io Counter :  Ar-300
I Counter  :  SC
Attachment :  None
0
0
0
Crystal    :  Si(400)   2d = 2.71500
Monochro   :  omega -0.208    tilt 0.042     z 0.3
Slits      :  DS =  4.00 mm     RS =  2.00 mm     HS = 10 mm
RX-78         Transmission        Repetition = 1
 
Block        Energy        Step/eV       Time/s
    1         11800          10.00            1
    2         11900           1.00            2
    3         11950         100.00            1
    4         13700           1.00            2
    5         13750          10.00            1
    6         13850           1.00            1
 
 Energy(eV)    Angle      time/s       Io          I
  11800.41    45.5330       1.00    96500.0   344793.0   -1.27340
  11810.43    45.4922       1.00    96227.0   345152.0   -1.27727
  11820.46    45.4515       1.00    95798.0   344674.0   -1.28036
  11830.27    45.4117       1.00    96090.0   346119.0   -1.28150
  11840.33    45.3709       1.00    96039.0   346510.0   -1.28316
  11850.41    45.3302       1.00    96205.0   345610.0   -1.27883
  11860.27    45.2904       1.00    96047.0   346891.0   -1.28417
  11870.39    45.2497       1.00    95722.0   346370.0   -1.28606
  11880.28    45.2099       1.00    96389.0   345544.0   -1.27673
  11890.43    45.1692       1.00    96112.0   343940.0   -1.27495
  11900.36    45.1294       2.00   192768.0   660671.0   -1.23177
  11901.32    45.1255       2.00   192433.0   655560.0   -1.22574
  11902.29    45.1217       2.00   191716.0   649317.0   -1.21991
  11903.26    45.1178       2.00   192909.0   642163.0   -1.20262
  11904.23    45.1139       2.00   192265.0   634525.0   -1.19400
  11905.45    45.1091       2.00   192216.0   625703.0   -1.18026
  11906.42    45.1052       2.00   191646.0   617106.0   -1.16939
  11907.39    45.1013       2.00   193090.0   608452.0   -1.14776
  11908.36    45.0974       2.00   192794.0   599749.0   -1.13489
  11909.33    45.0936       2.00   192003.0   590159.0   -1.12288
  11910.30    45.0897       2.00   192202.0   579276.0   -1.10323
  11911.27    45.0858       2.00   192731.0   568707.0   -1.08207
  11912.24    45.0819       2.00   192095.0   557831.0   -1.06607
  11913.45    45.0771       2.00   192071.0   544248.0   -1.04154
  11914.42    45.0732       2.00   192306.0   534086.0   -1.02147
  11915.40    45.0693       2.00   192584.0   521874.0   -0.99689
  11916.37    45.0654       2.00   192189.0   512323.0   -0.98048
  11917.34    45.0616       2.00   191749.0   501475.0   -0.96137
  11918.31    45.0577       2.00   192375.0   490180.0   -0.93533
  11919.28    45.0538       2.00   192828.0   480401.0   -0.91282
  11920.26    45.0499       2.00   192402.0   470446.0   -0.89409
  11921.47    45.0451       2.00   191954.0   459762.0   -0.87345
  11922.44    45.0412       2.00   192382.0   450912.0   -0.85179
  11923.42    45.0373       2.00   192269.0   443117.0   -0.83494
  11924.39    45.0335       2.00   192527.0   435782.0   -0.81691
  11925.36    45.0296       2.00   192702.0   429163.0   -0.80069
  11926.34    45.0257       2.00   191643.0   423175.0   -0.79215
  11927.31    45.0218       2.00   192058.0   417992.0   -0.77766
  11928.28    45.0180       2.00   193231.0   413170.0   -0.75997
  11929.26    45.0141       2.00   192362.0   408344.0   -0.75273
  11930.23    45.0102       2.00   192293.0   404903.0   -0.74463
  11931.45    45.0054       2.00   192068.0   400047.0   -0.73373
  11932.42    45.0015       2.00   192358.0   396334.0   -0.72290
  11933.40    44.9976       2.00   192369.0   393335.0   -0.71525
  11934.37    44.9937       2.00   192186.0   390265.0   -0.70836
  11935.35    44.9899       2.00   191616.0   387791.0   -0.70497
  11936.32    44.9860       2.00   191939.0   384775.0   -0.69548
  11937.30    44.9821       2.00   192501.0   384326.0   -0.69139
  11938.27    44.9782       2.00   191301.0   382739.0   -0.69351
  11939.25    44.9744       2.00   192176.0   381582.0   -0.68591
  11940.47    44.9695       2.00   191817.0   379680.0   -0.68279
  11941.44    44.9656       2.00   191277.0   377795.0   -0.68063
  11942.42    44.9618       2.00   191580.0   376866.0   -0.67658
  11943.40    44.9579       2.00   191427.0   376173.0   -0.67554
  11944.37    44.9540       2.00   190785.0   376063.0   -0.67861
  11945.35    44.9501       2.00   191848.0   374279.0   -0.66830
  11946.32    44.9463       2.00   191657.0   373962.0   -0.66845
  11947.30    44.9424       2.00   191503.0   372944.0   -0.66652
  11948.28    44.9385       2.00   191539.0   372058.0   -0.66396
  11949.26    44.9346       2.00   191119.0   370733.0   -0.66259
  11950.23    44.9308       1.00    95563.0   185078.0   -0.66099
  12050.26    44.5377       1.00    96405.0   194152.0   -0.70008
  12150.45    44.1510       1.00    95694.0   197707.0   -0.72563
  12250.28    43.7726       1.00    95432.0   206639.0   -0.77256
  12350.45    43.3994       1.00    94367.0   212255.0   -0.81060
  12450.42    43.0335       1.00    94312.0   219573.0   -0.84508
  12550.40    42.6739       1.00    93121.0   225088.0   -0.88259
  12650.36    42.3204       1.00    92961.0   230644.0   -0.90870
  12750.53    41.9721       1.00    90798.0   234777.0   -0.95000
  12850.32    41.6310       1.00    89448.0   238852.0   -0.98219
  12950.54    41.2940       1.00    89024.0   242883.0   -1.00367
  13050.30    40.9641       1.00    88240.0   244807.0   -1.02041
  13150.42    40.6384       1.00    85616.0   246674.0   -1.05820
  13250.58    40.3178       1.00    83198.0   245990.0   -1.08407
  13350.46    40.0033       1.00    80521.0   244571.0   -1.11099
  13450.30    39.6938       1.00    78509.0   243397.0   -1.13148
  13550.39    39.3884       1.00    76038.0   241388.0   -1.15517
  13650.39    39.0881       1.00    74239.0   238293.0   -1.16621
  13700.62    38.9390       2.00   144501.0   466003.0   -1.17091
  13701.59    38.9361       2.00   145340.0   466684.0   -1.16658
  13702.55    38.9333       2.00   145442.0   465488.0   -1.16331
  13703.52    38.9304       2.00   145167.0   464445.0   -1.16296
  13704.48    38.9276       2.00   145685.0   462885.0   -1.15603
  13705.44    38.9247       2.00   146077.0   463274.0   -1.15418
  13706.41    38.9219       2.00   145690.0   462307.0   -1.15475
  13707.37    38.9190       2.00   145752.0   461037.0   -1.15157
  13708.34    38.9162       2.00   146290.0   459813.0   -1.14523
  13709.62    38.9124       2.00   146317.0   457480.0   -1.13996
  13710.59    38.9095       2.00   146018.0   457252.0   -1.14150
  13711.55    38.9067       2.00   146031.0   454737.0   -1.13590
  13712.52    38.9038       2.00   146109.0   453801.0   -1.13331
  13713.48    38.9010       2.00   145922.0   451971.0   -1.13055
  13714.45    38.8981       2.00   145807.0   449874.0   -1.12668
  13715.41    38.8953       2.00   146589.0   448679.0   -1.11867
  13716.38    38.8924       2.00   146320.0   446140.0   -1.11484
  13717.34    38.8896       2.00   145835.0   445716.0   -1.11721
  13718.31    38.8867       2.00   146769.0   443778.0   -1.10646
  13719.60    38.8829       2.00   145649.0   440319.0   -1.10630
  13720.56    38.8801       2.00   146446.0   439032.0   -1.09792
  13721.53    38.8773       2.00   146179.0   436606.0   -1.09420
  13722.50    38.8744       2.00   146648.0   434264.0   -1.08562
  13723.46    38.8716       2.00   145644.0   432473.0   -1.08835
  13724.43    38.8687       2.00   146292.0   430502.0   -1.07935
  13725.40    38.8659       2.00   146001.0   428304.0   -1.07622
  13726.36    38.8630       2.00   146143.0   426534.0   -1.07111
  13727.33    38.8602       2.00   146146.0   423829.0   -1.06472
  13728.62    38.8564       2.00   146202.0   421631.0   -1.05914
  13729.59    38.8535       2.00   145962.0   419754.0   -1.05632
  13730.56    38.8507       2.00   146094.0   417539.0   -1.05013
  13731.52    38.8478       2.00   145615.0   415876.0   -1.04942
  13732.49    38.8450       2.00   146320.0   414101.0   -1.04031
  13733.46    38.8421       2.00   146269.0   411713.0   -1.03488
  13734.43    38.8393       2.00   145912.0   409219.0   -1.03125
  13735.40    38.8364       2.00   145906.0   407564.0   -1.02724
  13736.36    38.8336       2.00   146247.0   406393.0   -1.02202
  13737.33    38.8307       2.00   146368.0   405166.0   -1.01817
  13738.62    38.8269       2.00   145560.0   402481.0   -1.01706
  13739.59    38.8241       2.00   146747.0   401157.0   -1.00564
  13740.56    38.8212       2.00   145800.0   399580.0   -1.00818
  13741.53    38.8184       2.00   146164.0   397067.0   -0.99938
  13742.50    38.8156       2.00   145990.0   396393.0   -0.99887
  13743.47    38.8127       2.00   146219.0   395168.0   -0.99421
  13744.44    38.8099       2.00   146575.0   395498.0   -0.99261
  13745.41    38.8070       2.00   146628.0   392548.0   -0.98476
  13746.38    38.8042       2.00   145931.0   391158.0   -0.98598
  13747.35    38.8013       2.00   145593.0   393058.0   -0.99314
  13748.32    38.7985       2.00   145989.0   390006.0   -0.98263
  13749.61    38.7947       2.00   145943.0   388630.0   -0.97941
  13750.58    38.7918       1.00    72637.0   193571.0   -0.98017
  13760.62    38.7624       1.00    72940.0   191345.0   -0.96444
  13770.34    38.7339       1.00    73180.0   190113.0   -0.95470
  13780.41    38.7045       1.00    72660.0   190502.0   -0.96387
  13790.49    38.6751       1.00    72420.0   190648.0   -0.96795
  13800.58    38.6457       1.00    72180.0   190543.0   -0.97071
  13810.36    38.6172       1.00    71933.0   190094.0   -0.97178
  13820.48    38.5878       1.00    72552.0   189592.0   -0.96057
  13830.62    38.5584       1.00    72262.0   190510.0   -0.96941
  13840.45    38.5300       1.00    72450.0   190329.0   -0.96586
