 0102    Rigaku R-XAS Looper
Ce                23/11/2023 10:08 -
Comment    :  exafstest
Sample     :  test
Operator   :  exafs
core       :  Cu
edge       :  K
XG         :  15 kV    30 mA
Filament   :  LaB6
Target     :  Mo
Io Counter :  Ar-300
I Counter  :  SC
Attachment :  None
0
0
0
Crystal    :  Ge(220)   2d = 4.00081
Monochro   :  omega -0.207    tilt 0.052     z 0.3
Slits      :  DS =  4.00 mm     RS =  2.00 mm     HS = 10 mm
RX-78         Transmission        Repetition = 1
 
Block        Energy        Step/eV       Time/s
    1          5600          10.00            1
    2          5710           1.00            2
    3          5740          10.00            1
    4          6150           1.00            2
    5          6180          10.00            1
    6          7100           1.00            1
 
 Energy(eV)    Angle      time/s       Io          I
   5600.03    67.1967       1.00    17491.0     4608.0    1.33389
   5610.01    67.0613       1.00    17994.0     4769.0    1.32790
   5620.02    66.9260       1.00    18189.0     4912.0    1.30914
   5630.08    66.7909       1.00    18475.0     4877.0    1.33189
   5640.00    66.6579       1.00    19041.0     5192.0    1.29948
   5650.04    66.5241       1.00    19294.0     5238.0    1.30385
   5660.04    66.3914       1.00    19758.0     5270.0    1.32153
   5670.07    66.2587       1.00    20353.0     5597.0    1.29100
   5680.06    66.1273       1.00    20656.0     5695.0    1.28842
   5690.00    65.9970       1.00    20628.0     5756.0    1.27641
   5700.06    65.8658       1.00    21361.0     6051.0    1.26134
   5710.07    65.7357       2.00    43135.0    12132.0    1.26849
   5711.06    65.7229       2.00    43541.0    12180.0    1.27391
   5712.04    65.7101       2.00    43313.0    12257.0    1.26236
   5713.03    65.6973       2.00    43237.0    12103.0    1.27324
   5714.02    65.6845       2.00    43568.0    11988.0    1.29042
   5715.01    65.6718       2.00    43301.0    12121.0    1.27324
   5716.08    65.6579       2.00    43648.0    11965.0    1.29417
   5717.06    65.6451       2.00    43815.0    11717.0    1.31894
   5718.05    65.6323       2.00    43692.0    11812.0    1.30805
   5719.04    65.6196       2.00    43675.0    11549.0    1.33018
   5720.03    65.6068       2.00    43756.0    11369.0    1.34774
   5721.02    65.5940       2.00    43824.0    10979.0    1.38420
   5722.01    65.5812       2.00    44322.0    10423.0    1.44747
   5723.00    65.5684       2.00    44005.0     9912.0    1.49056
   5724.08    65.5546       2.00    44466.0     8977.0    1.60006
   5725.07    65.5418       2.00    43910.0     8228.0    1.67460
   5726.06    65.5290       2.00    44337.0     7445.0    1.78428
   5727.05    65.5163       2.00    44205.0     6854.0    1.86401
   5728.05    65.5035       2.00    44752.0     6332.0    1.95552
   5729.04    65.4907       2.00    44524.0     6122.0    1.98414
   5730.03    65.4779       2.00    44693.0     5980.0    2.01140
   5731.02    65.4652       2.00    44935.0     5862.0    2.03673
   5732.02    65.4524       2.00    44988.0     5862.0    2.03790
   5733.01    65.4396       2.00    45540.0     5997.0    2.02733
   5734.01    65.4269       2.00    45193.0     6105.0    2.00183
   5735.00    65.4141       2.00    45264.0     6205.0    1.98716
   5736.00    65.4013       2.00    45543.0     5826.0    2.05633
   5737.08    65.3875       2.00    45288.0     6006.0    2.02028
   5738.07    65.3747       2.00    45569.0     6115.0    2.00848
   5739.07    65.3620       2.00    45516.0     6419.0    1.95880
   5740.06    65.3492       1.00    22637.0     3386.0    1.89994
   5750.05    65.2216       1.00    22878.0     4308.0    1.66970
   5760.07    65.0941       1.00    23548.0     4388.0    1.68017
   5770.04    64.9678       1.00    24044.0     4185.0    1.74838
   5780.05    64.8416       1.00    24537.0     4434.0    1.71088
   5790.00    64.7164       1.00    24641.0     4606.0    1.67705
   5800.08    64.5904       1.00    25390.0     5065.0    1.61200
   5810.02    64.4665       1.00    25626.0     4959.0    1.64240
   5820.08    64.3417       1.00    25977.0     4962.0    1.65540
   5830.00    64.2190       1.00    26881.0     5050.0    1.67203
   5840.04    64.0954       1.00    26706.0     5296.0    1.61794
   5850.03    63.9729       1.00    27388.0     5306.0    1.64127
   5860.06    63.8505       1.00    27610.0     5471.0    1.61872
   5870.03    63.7293       1.00    28069.0     5677.0    1.59824
   5880.04    63.6081       1.00    28847.0     5894.0    1.58807
   5890.08    63.4870       1.00    28844.0     5997.0    1.57064
   5900.07    63.3670       1.00    29463.0     6039.0    1.58490
   5910.00    63.2482       1.00    29717.0     6314.0    1.54895
   5920.06    63.1283       1.00    30307.0     6332.0    1.56576
   5930.06    63.0097       1.00    31089.0     6675.0    1.53848
   5940.00    62.8921       1.00    31435.0     6776.0    1.53453
   5950.07    62.7735       1.00    31648.0     6835.0    1.53262
   5960.00    62.6572       1.00    32408.0     7208.0    1.50321
   5970.04    62.5398       1.00    32641.0     7302.0    1.49742
   5980.03    62.4236       1.00    32640.0     7457.0    1.47639
   5990.06    62.3075       1.00    33471.0     7694.0    1.47024
   6000.03    62.1924       1.00    33899.0     7710.0    1.48087
   6010.03    62.0774       1.00    33961.0     7895.0    1.45898
   6020.06    61.9625       1.00    34816.0     8286.0    1.43551
   6030.03    61.8488       1.00    35117.0     8476.0    1.42145
   6040.04    61.7350       1.00    35647.0     8765.0    1.40290
   6050.09    61.6214       1.00    36135.0     8782.0    1.41456
   6060.07    61.5089       1.00    36592.0     8996.0    1.40305
   6070.08    61.3964       1.00    37334.0     9358.0    1.38367
   6080.04    61.2850       1.00    37583.0     9432.0    1.38244
   6090.03    61.1737       1.00    37874.0     9712.0    1.36090
   6100.05    61.0625       1.00    38292.0    10197.0    1.32315
   6110.01    60.9523       1.00    38813.0    10296.0    1.32700
   6120.00    60.8422       1.00    39254.0    10517.0    1.31706
   6130.03    60.7322       1.00    39821.0    10803.0    1.30457
   6140.09    60.6223       1.00    40037.0    11195.0    1.27434
   6150.08    60.5134       2.00    81198.0    22319.0    1.29145
   6151.04    60.5031       2.00    80836.0    22673.0    1.27125
   6152.08    60.4917       2.00    81399.0    22589.0    1.28190
   6153.04    60.4813       2.00    81845.0    22819.0    1.27723
   6154.09    60.4699       2.00    80949.0    22450.0    1.28253
   6155.04    60.4595       2.00    81485.0    22753.0    1.27572
   6156.00    60.4492       2.00    81653.0    22558.0    1.28639
   6157.05    60.4378       2.00    81900.0    22220.0    1.30451
   6158.01    60.4274       2.00    82015.0    22420.0    1.29695
   6159.06    60.4160       2.00    82365.0    22020.0    1.31921
   6160.01    60.4057       2.00    82633.0    21814.0    1.33186
   6161.07    60.3943       2.00    82517.0    21127.0    1.36245
   6162.02    60.3839       2.00    82136.0    20673.0    1.37955
   6163.08    60.3725       2.00    81874.0    19486.0    1.43549
   6164.04    60.3622       2.00    82554.0    18701.0    1.48488
   6165.09    60.3508       2.00    82955.0    17876.0    1.53484
   6166.05    60.3404       2.00    82224.0    17022.0    1.57494
   6167.01    60.3301       2.00    82825.0    16193.0    1.63215
   6168.06    60.3187       2.00    83050.0    15425.0    1.68345
   6169.02    60.3083       2.00    83000.0    15247.0    1.69446
   6170.08    60.2969       2.00    82929.0    15056.0    1.70621
   6171.04    60.2866       2.00    83072.0    14840.0    1.72238
   6172.00    60.2762       2.00    83312.0    14885.0    1.72224
   6173.05    60.2648       2.00    82888.0    14827.0    1.72104
   6174.01    60.2545       2.00    83145.0    14947.0    1.71608
   6175.07    60.2431       2.00    83307.0    15051.0    1.71109
   6176.03    60.2327       2.00    83273.0    15329.0    1.69238
   6177.09    60.2214       2.00    83452.0    15631.0    1.67502
   6178.05    60.2110       2.00    83925.0    15777.0    1.67137
   6179.01    60.2007       2.00    83974.0    16720.0    1.61390
   6180.07    60.1893       1.00    42252.0     8705.0    1.57975
   6190.01    60.0827       1.00    42217.0     9826.0    1.45779
   6200.07    59.9752       1.00    43154.0     9679.0    1.49482
   6210.07    59.8688       1.00    43182.0     9844.0    1.47856
   6220.00    59.7634       1.00    43967.0    10101.0    1.47080
   6230.06    59.6571       1.00    44297.0    10632.0    1.42705
   6240.06    59.5519       1.00    44930.0    11024.0    1.40503
   6250.09    59.4467       1.00    45672.0    11042.0    1.41978
   6260.05    59.3426       1.00    45647.0    11144.0    1.41004
   6270.05    59.2386       1.00    46286.0    11221.0    1.41705
   6280.07    59.1346       1.00    46964.0    11512.0    1.40599
   6290.03    59.0317       1.00    47097.0    12172.0    1.35307
   6300.02    58.9288       1.00    47739.0    12057.0    1.37610
