 0102    Rigaku R-XAS Looper
Dy.barrido                23/11/2023 11:26 -
Comment    :  exafstest
Sample     :  test
Operator   :  exafs
core       :  Cu
edge       :  K
XG         :  15 kV    30 mA
Filament   :  LaB6
Target     :  Mo
Io Counter :  Ar-300
I Counter  :  SC
Attachment :  None
0
0
0
Crystal    :  Ge(220)   2d = 4.00081
Monochro   :  omega -0.207    tilt 0.052     z 0.3
Slits      :  DS =  4.00 mm     RS =  2.00 mm     HS = 10 mm
RX-78         Transmission        Repetition = 1
 
Block        Energy        Step/eV       Time/s
    1          7700          10.00            1
    2          8650           1.00            2
 
 Energy(eV)    Angle      time/s       Io          I
   7700.11    47.4623       1.00    97244.0   112110.0   -0.14226
   7710.14    47.3968       1.00    97256.0   111808.0   -0.13944
   7720.04    47.3322       1.00    97315.0   112553.0   -0.14547
   7730.12    47.2668       1.00    96868.0   113205.0   -0.15585
   7740.08    47.2023       1.00    97398.0   114155.0   -0.15875
   7750.06    47.1378       1.00    97806.0   114344.0   -0.15623
   7760.06    47.0734       1.00    98269.0   114358.0   -0.15163
   7770.10    47.0089       1.00    98440.0   111495.0   -0.12453
   7780.00    46.9455       1.00    98017.0    87831.0    0.10973
   7790.09    46.8811       1.00    98974.0    62055.0    0.46684
   7800.04    46.8176       1.00    98458.0    77181.0    0.24348
   7810.03    46.7542       1.00    99247.0    79451.0    0.22247
   7820.04    46.6908       1.00    98904.0    75681.0    0.26762
   7830.07    46.6275       1.00    99307.0    76744.0    0.25774
   7840.13    46.5641       1.00    99610.0    79014.0    0.23164
   7850.06    46.5018       1.00    99712.0    80445.0    0.21471
   7860.02    46.4394       1.00    99726.0    80081.0    0.21939
   7870.00    46.3771       1.00    99561.0    78874.0    0.23292
   7880.00    46.3147       1.00   100569.0    78865.0    0.24311
   7890.03    46.2524       1.00    99588.0    79471.0    0.22565
   7900.09    46.1901       1.00   100315.0    80627.0    0.21848
   7910.02    46.1288       1.00   100251.0    82228.0    0.19818
   7920.12    46.0666       1.00   100383.0    82921.0    0.19110
   7930.10    46.0053       1.00   100758.0    83330.0    0.18991
   7940.10    45.9440       1.00   100518.0    82254.0    0.20052
   7950.13    45.8828       1.00   100888.0    82582.0    0.20022
   7960.02    45.8225       1.00   100923.0    83536.0    0.18908
   7970.09    45.7613       1.00   100805.0    84082.0    0.18140
   7980.04    45.7010       1.00   101621.0    83520.0    0.19616
   7990.00    45.6408       1.00   101444.0    84383.0    0.18414
   7999.99    45.5806       1.00   102187.0    85000.0    0.18415
   8010.01    45.5204       1.00   107119.0    89409.0    0.18072
   8020.05    45.4602       1.00   112911.0    94596.0    0.17698
   8030.12    45.4000       1.00   115476.0    96178.0    0.18286
   8040.05    45.3408       1.00   123499.0   101899.0    0.19225
   8050.00    45.2817       1.00   107227.0    91343.0    0.16033
   8060.14    45.2215       1.00   102848.0    87253.0    0.16444
   8070.14    45.1624       1.00   102527.0    87776.0    0.15534
   8080.01    45.1042       1.00   102416.0    88530.0    0.14570
   8090.06    45.0451       1.00   102222.0    88437.0    0.14486
   8100.14    44.9860       1.00   102321.0    88927.0    0.14030
   8110.08    44.9278       1.00   102212.0    88641.0    0.14245
   8120.04    44.8697       1.00   102508.0    89822.0    0.13211
   8130.02    44.8116       1.00   102423.0    89888.0    0.13055
   8140.03    44.7535       1.00   102439.0    90295.0    0.12619
   8150.07    44.6954       1.00   102420.0    90207.0    0.12697
   8160.13    44.6374       1.00   102851.0    90409.0    0.12894
   8170.04    44.5803       1.00   102470.0    90937.0    0.11940
   8180.15    44.5222       1.00   102471.0    91536.0    0.11285
   8190.12    44.4652       1.00   102258.0    91646.0    0.10957
   8200.11    44.4081       1.00   102617.0    92097.0    0.10816
   8210.12    44.3511       1.00   102455.0    92351.0    0.10383
   8220.16    44.2940       1.00   102538.0    93007.0    0.09756
   8230.05    44.2380       1.00   103343.0    93551.0    0.09955
   8240.14    44.1810       1.00   103843.0    93668.0    0.10312
   8250.08    44.1249       1.00   103419.0    93848.0    0.09711
   8260.05    44.0689       1.00   103715.0    93453.0    0.10419
   8270.03    44.0129       1.00   103322.0    94401.0    0.09030
   8280.05    43.9569       1.00   103189.0    94660.0    0.08627
   8290.08    43.9009       1.00   103296.0    95294.0    0.08063
   8300.15    43.8449       1.00   103974.0    96171.0    0.07801
   8310.06    43.7899       1.00   106147.0    97502.0    0.08495
   8319.99    43.7349       1.00   116424.0   105399.0    0.09949
   8330.13    43.6790       1.00   114175.0   104904.0    0.08469
   8340.11    43.6240       1.00   106452.0    99060.0    0.07197
   8350.12    43.5691       1.00   105867.0    98184.0    0.07534
   8360.15    43.5141       1.00   108348.0   100760.0    0.07261
   8370.03    43.4602       1.00   121978.0   110349.0    0.10019
   8380.11    43.4052       1.00   196153.0   155688.0    0.23104
   8390.03    43.3513       1.00   209409.0   167169.0    0.22528
   8400.16    43.2964       1.00   133641.0   121858.0    0.09230
   8410.14    43.2424       1.00   109696.0   103065.0    0.06235
   8420.13    43.1885       1.00   105103.0   100144.0    0.04833
   8430.16    43.1346       1.00   103430.0    99184.0    0.04192
   8440.02    43.0817       1.00   103027.0    98913.0    0.04075
   8450.09    43.0278       1.00   103228.0    98911.0    0.04272
   8460.00    42.9748       1.00   103303.0    99022.0    0.04232
   8470.12    42.9210       1.00   101850.0    99165.0    0.02672
   8480.08    42.8681       1.00   102268.0    99103.0    0.03144
   8490.06    42.8152       1.00   102620.0    98781.0    0.03813
   8500.07    42.7623       1.00   102171.0    98618.0    0.03539
   8510.10    42.7094       1.00   101850.0    99353.0    0.02482
   8520.15    42.6566       1.00   101797.0    99187.0    0.02597
   8530.05    42.6047       1.00   101955.0    99692.0    0.02245
   8540.15    42.5518       1.00   101002.0    99419.0    0.01580
   8550.09    42.4999       1.00   101613.0    99154.0    0.02450
   8560.05    42.4481       1.00   101253.0    95500.0    0.05850
   8570.04    42.3962       1.00   101191.0    81660.0    0.21445
   8580.05    42.3444       1.00   101285.0    80119.0    0.23443
   8590.08    42.2925       1.00   101266.0    85216.0    0.17256
   8600.14    42.2407       1.00   102486.0    85939.0    0.17609
   8610.03    42.1898       1.00   102151.0    84952.0    0.18437
   8620.14    42.1380       1.00   103753.0    86234.0    0.18495
   8630.08    42.0872       1.00   103942.0    88172.0    0.16454
   8640.04    42.0364       1.00   101312.0    85985.0    0.16403
