 0102    Rigaku R-XAS Looper
Dy                23/11/2023 11:34 -
Comment    :  exafstest
Sample     :  test
Operator   :  exafs
core       :  Cu
edge       :  K
XG         :  15 kV    30 mA
Filament   :  LaB6
Target     :  Mo
Io Counter :  Ar-300
I Counter  :  SC
Attachment :  None
0
0
0
Crystal    :  Ge(220)   2d = 4.00081
Monochro   :  omega -0.207    tilt 0.052     z 0.3
Slits      :  DS =  4.00 mm     RS =  2.00 mm     HS = 10 mm
RX-78         Transmission        Repetition = 1
 
Block        Energy        Step/eV       Time/s
    1          7700          20.00            1
    2          7760           1.00            2
    3          7795          40.00            1
    4          8540           1.00            2
    5          8585          40.00            1
    6          8650           1.00            2
 
 Energy(eV)    Angle      time/s       Io          I
   7700.11    47.4623       1.00    97076.0   111408.0   -0.13770
   7720.04    47.3322       1.00    97378.0   113090.0   -0.14958
   7740.08    47.2023       1.00    97462.0   114523.0   -0.16131
   7760.06    47.0734       2.00   196586.0   228282.0   -0.14948
   7761.13    47.0665       2.00   196063.0   228366.0   -0.15251
   7762.04    47.0607       2.00   195408.0   228001.0   -0.15426
   7763.10    47.0538       2.00   195744.0   227539.0   -0.15051
   7764.01    47.0480       2.00   196471.0   227056.0   -0.14468
   7765.08    47.0411       2.00   195536.0   227999.0   -0.15360
   7766.14    47.0343       2.00   196123.0   225763.0   -0.14074
   7767.05    47.0284       2.00   196044.0   225854.0   -0.14155
   7768.12    47.0216       2.00   196989.0   225500.0   -0.13517
   7769.03    47.0157       2.00   196371.0   224296.0   -0.13296
   7770.10    47.0089       2.00   197262.0   223175.0   -0.12342
   7771.01    47.0031       2.00   195781.0   222596.0   -0.12836
   7772.08    46.9962       2.00   195636.0   219235.0   -0.11389
   7773.14    46.9894       2.00   196609.0   216618.0   -0.09692
   7774.06    46.9835       2.00   196310.0   214122.0   -0.08685
   7775.12    46.9767       2.00   196376.0   209759.0   -0.06593
   7776.04    46.9708       2.00   196177.0   205032.0   -0.04415
   7777.10    46.9640       2.00   196743.0   199850.0   -0.01567
   7778.02    46.9582       2.00   196442.0   193371.0    0.01576
   7779.09    46.9513       2.00   195700.0   184608.0    0.05835
   7780.00    46.9455       2.00   196165.0   177924.0    0.09760
   7781.07    46.9386       2.00   196062.0   167216.0    0.15914
   7782.14    46.9318       2.00   196029.0   158125.0    0.21488
   7783.06    46.9259       2.00   197598.0   150225.0    0.27410
   7784.13    46.9191       2.00   196315.0   142207.0    0.32244
   7785.04    46.9133       2.00   196764.0   136019.0    0.36921
   7786.11    46.9064       2.00   196200.0   130042.0    0.41128
   7787.03    46.9006       2.00   196509.0   126527.0    0.44025
   7788.10    46.8937       2.00   196127.0   123566.0    0.46199
   7789.02    46.8879       2.00   197412.0   123506.0    0.46900
   7790.09    46.8811       2.00   196482.0   123749.0    0.46232
   7791.01    46.8752       2.00   196046.0   125184.0    0.44856
   7792.08    46.8684       2.00   197232.0   128279.0    0.43017
   7793.00    46.8625       2.00   197262.0   130599.0    0.41240
   7794.07    46.8557       2.00   196741.0   135131.0    0.37564
   7795.14    46.8489       1.00    99003.0    69474.0    0.35420
   7835.02    46.5963       1.00    99473.0    77838.0    0.24526
   7875.00    46.3459       1.00    99799.0    78946.0    0.23439
   7915.07    46.0977       1.00   100553.0    82933.0    0.19265
   7955.07    45.8526       1.00   101083.0    82407.0    0.20427
   7994.99    45.6107       1.00   101632.0    84935.0    0.17947
   8035.00    45.3709       1.00   123435.0   101482.0    0.19583
   8075.07    45.1333       1.00   102671.0    87936.0    0.15492
   8115.05    44.8988       1.00   102212.0    89381.0    0.13414
   8155.10    44.6664       1.00   102648.0    90696.0    0.12379
   8195.03    44.4371       1.00   101980.0    91736.0    0.10586
   8235.01    44.2100       1.00   102897.0    93454.0    0.09626
   8275.04    43.9849       1.00   103511.0    95293.0    0.08272
   8315.11    43.7620       1.00   110303.0   101384.0    0.08432
   8355.04    43.5421       1.00   106247.0    99231.0    0.06832
   8395.01    43.3243       1.00   170893.0   147585.0    0.14663
   8435.00    43.1086       1.00   103332.0    99065.0    0.04217
   8475.01    42.8950       1.00   102476.0    99249.0    0.03200
   8515.03    42.6835       1.00   102326.0   100154.0    0.02145
   8540.15    42.5518       2.00   203303.0   199817.0    0.01730
   8541.07    42.5470       2.00   203185.0   198644.0    0.02260
   8542.17    42.5412       2.00   203170.0   199803.0    0.01671
   8543.09    42.5364       2.00   202683.0   198957.0    0.01855
   8544.01    42.5316       2.00   202638.0   198572.0    0.02027
   8545.11    42.5259       2.00   203020.0   199062.0    0.01969
   8546.04    42.5211       2.00   202781.0   198918.0    0.01923
   8547.14    42.5153       2.00   203596.0   198884.0    0.02342
   8548.06    42.5105       2.00   202769.0   199495.0    0.01628
   8549.17    42.5047       2.00   202598.0   198238.0    0.02176
   8550.09    42.4999       2.00   201972.0   198320.0    0.01825
   8551.01    42.4951       2.00   202628.0   198373.0    0.02122
   8552.12    42.4894       2.00   203105.0   198300.0    0.02394
   8553.04    42.4846       2.00   202847.0   197309.0    0.02768
   8554.14    42.4788       2.00   202510.0   197400.0    0.02556
   8555.07    42.4740       2.00   202937.0   197806.0    0.02561
   8556.17    42.4682       2.00   202621.0   195792.0    0.03428
   8557.10    42.4634       2.00   201469.0   195713.0    0.02899
   8558.02    42.4586       2.00   202529.0   194278.0    0.04159
   8559.13    42.4529       2.00   202968.0   192969.0    0.05052
   8560.05    42.4481       2.00   202330.0   191219.0    0.05648
   8561.16    42.4423       2.00   202093.0   188960.0    0.06719
   8562.08    42.4375       2.00   202495.0   186276.0    0.08349
   8563.01    42.4327       2.00   202941.0   183503.0    0.10068
   8564.12    42.4269       2.00   202953.0   181297.0    0.11284
   8565.04    42.4221       2.00   202342.0   178583.0    0.12491
   8566.15    42.4164       2.00   203399.0   174752.0    0.15180
   8567.08    42.4116       2.00   202446.0   172111.0    0.16233
   8568.00    42.4068       2.00   203381.0   168443.0    0.18848
   8569.11    42.4010       2.00   203133.0   165501.0    0.20488
   8570.04    42.3962       2.00   203769.0   162907.0    0.22381
   8571.15    42.3905       2.00   202579.0   160353.0    0.23375
   8572.08    42.3857       2.00   202718.0   159084.0    0.24238
   8573.00    42.3809       2.00   201839.0   158147.0    0.24395
   8574.11    42.3751       2.00   202604.0   156408.0    0.25879
   8575.04    42.3703       2.00   202493.0   157269.0    0.25275
   8576.15    42.3645       2.00   202520.0   156805.0    0.25584
   8577.08    42.3597       2.00   202217.0   157403.0    0.25053
   8578.01    42.3549       2.00   201445.0   157763.0    0.24442
   8579.12    42.3492       2.00   202888.0   158689.0    0.24571
   8580.05    42.3444       2.00   203013.0   159402.0    0.24184
   8581.16    42.3386       2.00   202423.0   160575.0    0.23160
   8582.09    42.3338       2.00   201595.0   161747.0    0.22023
   8583.02    42.3290       2.00   201937.0   162749.0    0.21575
   8584.13    42.3233       2.00   201424.0   164635.0    0.20168
   8585.06    42.3185       1.00   100627.0    83438.0    0.18732
   8625.01    42.1131       1.00   105213.0    87847.0    0.18039
