 0102    Rigaku R-XAS Looper
Er                23/11/2023 12:16 -
Comment    :  exafstest
Sample     :  test
Operator   :  exafs
core       :  Cu
edge       :  K
XG         :  20 kV    30 mA
Filament   :  LaB6
Target     :  Mo
Io Counter :  Ar-300
I Counter  :  SC
Attachment :  None
0
0
0
Crystal    :  Si(400)   2d = 2.71500
Monochro   :  omega -0.208    tilt 0.042     z 0.3
Slits      :  DS =  4.00 mm     RS =  2.00 mm     HS = 10 mm
RX-78         Transmission        Repetition = 1
 
Block        Energy        Step/eV       Time/s
    1          8200          10.00            1
    2          8345           1.00            2
    3          8370          50.00            1
    4          9250           1.00            2
    5          9280          10.00            1
    6          9300           1.00            1
 
 Energy(eV)    Angle      time/s       Io          I
   8200.19    67.6799       1.00    31953.0    50821.0   -0.46404
   8210.21    67.5862       1.00    32293.0    51402.0   -0.46483
   8220.14    67.4936       1.00    32605.0    52370.0   -0.47387
   8230.21    67.3999       1.00    32881.0    53057.0   -0.47847
   8240.19    67.3074       1.00    32926.0    53340.0   -0.48242
   8250.19    67.2149       1.00    33251.0    54162.0   -0.48789
   8260.22    67.1225       1.00    33706.0    55256.0   -0.49430
   8270.16    67.0312       1.00    34072.0    56296.0   -0.50215
   8280.11    66.9400       1.00    34280.0    56321.0   -0.49651
   8290.21    66.8477       1.00    34219.0    57578.0   -0.52036
   8300.22    66.7566       1.00    34545.0    58625.0   -0.52890
   8310.13    66.6665       1.00    35375.0    59038.0   -0.51218
   8320.19    66.5755       1.00    35553.0    60671.0   -0.53444
   8330.15    66.4855       1.00    38968.0    66268.0   -0.53097
   8340.13    66.3956       1.00    40459.0    68416.0   -0.52532
   8345.13    66.3507       2.00    75286.0   124006.0   -0.49904
   8346.20    66.3411       2.00    74721.0   122296.0   -0.49268
   8347.16    66.3325       2.00    74224.0   120459.0   -0.48422
   8348.23    66.3229       2.00    73382.0   118422.0   -0.47858
   8349.19    66.3143       2.00    73452.0   116726.0   -0.46320
   8350.14    66.3058       2.00    73973.0   115456.0   -0.44519
   8351.21    66.2962       2.00    73533.0   112193.0   -0.42249
   8352.17    66.2876       2.00    73882.0   108918.0   -0.38813
   8353.12    66.2791       2.00    73653.0   104850.0   -0.35317
   8354.20    66.2694       2.00    73352.0    99782.0   -0.30772
   8355.15    66.2609       2.00    73657.0    93948.0   -0.24332
   8356.23    66.2513       2.00    73469.0    86249.0   -0.16037
   8357.18    66.2427       2.00    73196.0    77557.0   -0.05787
   8358.14    66.2342       2.00    74037.0    69290.0    0.06626
   8359.22    66.2245       2.00    73881.0    60654.0    0.19727
   8360.17    66.2160       2.00    74368.0    54096.0    0.31827
   8361.13    66.2074       2.00    73975.0    48819.0    0.41561
   8362.20    66.1978       2.00    74943.0    45893.0    0.49042
   8363.16    66.1893       2.00    74410.0    44748.0    0.50854
   8364.12    66.1807       2.00    74703.0    45813.0    0.48895
   8365.20    66.1711       2.00    74628.0    49256.0    0.41548
   8366.15    66.1626       2.00    74909.0    52873.0    0.34838
   8367.23    66.1529       2.00    74478.0    58195.0    0.24670
   8368.19    66.1444       2.00    75344.0    62746.0    0.18297
   8369.15    66.1359       2.00    75298.0    67016.0    0.11652
   8370.23    66.1262       1.00    37914.0    35444.0    0.06737
   8420.15    65.6845       1.00    40367.0    42890.0   -0.06063
   8470.17    65.2482       1.00    38826.0    40811.0   -0.04986
   8520.18    64.8182       1.00    40202.0    43054.0   -0.06854
   8570.15    64.3946       1.00    41538.0    46218.0   -0.10676
   8620.20    63.9761       1.00    44356.0    50551.0   -0.13073
   8670.19    63.5638       1.00    44090.0    52998.0   -0.18402
   8720.25    63.1567       1.00    45905.0    56378.0   -0.20550
   8770.23    62.7557       1.00    46598.0    59590.0   -0.24593
   8820.26    62.3598       1.00    47781.0    63267.0   -0.28074
   8870.19    61.9699       1.00    49165.0    67350.0   -0.31472
   8920.14    61.5849       1.00    50757.0    71705.0   -0.34551
   8970.24    61.2039       1.00    52234.0    76637.0   -0.38335
   9020.21    60.8287       1.00    52653.0    79919.0   -0.41729
   9070.18    60.4585       1.00    54040.0    84423.0   -0.44612
   9120.14    60.0931       1.00    55093.0    90018.0   -0.49099
   9170.22    59.7314       1.00    56818.0    95128.0   -0.51537
   9220.27    59.3745       1.00    57484.0    99939.0   -0.55305
   9250.18    59.1634       2.00   117363.0   203082.0   -0.54834
   9251.21    59.1562       2.00   116272.0   202088.0   -0.55277
   9252.23    59.1490       2.00   116952.0   201990.0   -0.54645
   9253.26    59.1418       2.00   116927.0   199803.0   -0.53578
   9254.28    59.1346       2.00   116729.0   197693.0   -0.52686
   9255.16    59.1284       2.00   116786.0   195399.0   -0.51470
   9256.19    59.1212       2.00   116669.0   191928.0   -0.49778
   9257.21    59.1140       2.00   117226.0   186076.0   -0.46205
   9258.24    59.1068       2.00   116960.0   179686.0   -0.42938
   9259.27    59.0996       2.00   117198.0   172167.0   -0.38460
   9260.15    59.0934       2.00   117163.0   165873.0   -0.34766
   9261.17    59.0862       2.00   117691.0   158281.0   -0.29631
   9262.20    59.0790       2.00   117091.0   149661.0   -0.24542
   9263.23    59.0718       2.00   117694.0   141384.0   -0.18339
   9264.26    59.0646       2.00   117145.0   135057.0   -0.14228
   9265.28    59.0574       2.00   117301.0   130512.0   -0.10672
   9266.17    59.0512       2.00   118203.0   128025.0   -0.07982
   9267.19    59.0440       2.00   118146.0   127918.0   -0.07947
   9268.22    59.0368       2.00   117667.0   129764.0   -0.09786
   9269.25    59.0296       2.00   117574.0   133163.0   -0.12451
   9270.28    59.0224       2.00   117538.0   137752.0   -0.15869
   9271.16    59.0162       2.00   117441.0   142324.0   -0.19217
   9272.19    59.0090       2.00   117977.0   147629.0   -0.22421
   9273.22    59.0018       2.00   118065.0   153367.0   -0.26160
   9274.25    58.9946       2.00   118266.0   157539.0   -0.28674
   9275.28    58.9874       2.00   117648.0   161873.0   -0.31911
   9276.17    58.9813       2.00   117954.0   164307.0   -0.33144
   9277.20    58.9741       2.00   118169.0   166781.0   -0.34457
   9278.23    58.9669       2.00   118179.0   167809.0   -0.35063
   9279.26    58.9597       2.00   118253.0   168936.0   -0.35669
   9280.14    58.9535       1.00    59203.0    85132.0   -0.36323
   9290.17    58.8836       1.00    59410.0    85174.0   -0.36023
