 0102    Rigaku R-XAS Looper
Gd-barrido                23/11/2023 11:10 -
Comment    :  exafstest
Sample     :  test
Operator   :  exafs
core       :  Cu
edge       :  K
XG         :  15 kV    30 mA
Filament   :  LaB6
Target     :  Mo
Io Counter :  Ar-300
I Counter  :  SC
Attachment :  None
0
0
0
Crystal    :  Ge(220)   2d = 4.00081
Monochro   :  omega -0.207    tilt 0.052     z 0.3
Slits      :  DS =  4.00 mm     RS =  2.00 mm     HS = 10 mm
RX-78         Transmission        Repetition = 1
 
Block        Energy        Step/eV       Time/s
    1          7150          10.00            1
    2          8000           1.00            2
 
 Energy(eV)    Angle      time/s       Io          I
   7150.04    51.3679       1.00    82332.0    77869.0    0.05573
   7160.11    51.2904       1.00    82558.0    79478.0    0.03802
   7170.07    51.2139       1.00    82693.0    79421.0    0.04037
   7180.07    51.1375       1.00    82796.0    80203.0    0.03182
   7190.09    51.0611       1.00    82818.0    80412.0    0.02948
   7200.01    50.9857       1.00    83825.0    81845.0    0.02390
   7210.09    50.9094       1.00    84064.0    82141.0    0.02314
   7220.06    50.8340       1.00    83950.0    81542.0    0.02910
   7230.06    50.7587       1.00    84879.0    77272.0    0.09390
   7240.09    50.6834       1.00    84823.0    43566.0    0.66629
   7250.02    50.6091       1.00    85244.0    48034.0    0.57361
   7260.10    50.5339       1.00    85366.0    55746.0    0.42614
   7270.08    50.4596       1.00    85589.0    53734.0    0.46551
   7280.09    50.3854       1.00    85741.0    51773.0    0.50446
   7290.12    50.3112       1.00    87156.0    54826.0    0.46354
   7300.05    50.2380       1.00    86468.0    55984.0    0.43471
   7310.01    50.1649       1.00    86784.0    55776.0    0.44208
   7320.13    50.0908       1.00    87026.0    55835.0    0.44381
   7330.00    50.0186       1.00    87366.0    56314.0    0.43916
   7340.04    49.9456       1.00    87975.0    57037.0    0.43335
   7350.10    49.8725       1.00    88633.0    58046.0    0.42327
   7360.06    49.8004       1.00    89408.0    59154.0    0.41307
   7370.04    49.7284       1.00    90427.0    60448.0    0.40276
   7380.05    49.6564       1.00    92388.0    61876.0    0.40086
   7390.09    49.5844       1.00    91668.0    60942.0    0.40825
   7400.02    49.5134       1.00    90496.0    60600.0    0.40101
   7410.11    49.4414       1.00    90250.0    61537.0    0.38294
   7420.09    49.3705       1.00    90402.0    62103.0    0.37547
   7430.10    49.2995       1.00    90461.0    62400.0    0.37135
   7440.13    49.2286       1.00    91167.0    62874.0    0.37156
   7450.05    49.1587       1.00    91892.0    64427.0    0.35508
   7460.00    49.0888       1.00    92798.0    64743.0    0.36000
   7470.12    49.0180       1.00    95147.0    67208.0    0.34763
   7480.12    48.9481       1.00    92717.0    65510.0    0.34735
   7490.00    48.8793       1.00    92250.0    65550.0    0.34169
   7500.06    48.8095       1.00    92662.0    65876.0    0.34118
   7510.00    48.7407       1.00    92797.0    66770.0    0.32916
   7520.11    48.6709       1.00    92664.0    67447.0    0.31764
   7530.10    48.6021       1.00    92692.0    68244.0    0.30619
   7540.12    48.5334       1.00    93294.0    69004.0    0.30159
   7550.03    48.4656       1.00    93462.0    69133.0    0.30152
   7560.10    48.3969       1.00    93967.0    69455.0    0.30226
   7570.05    48.3292       1.00    93513.0    70532.0    0.28203
   7580.04    48.2615       1.00    94247.0    71204.0    0.28037
   7590.04    48.1938       1.00    94512.0    71226.0    0.28287
   7600.08    48.1262       1.00    94106.0    72485.0    0.26104
   7609.99    48.0595       1.00    94809.0    72902.0    0.26275
   7620.08    47.9919       1.00    94896.0    73525.0    0.25516
   7630.05    47.9253       1.00    95137.0    73676.0    0.25564
   7640.04    47.8586       1.00    95426.0    74403.0    0.24885
   7650.06    47.7921       1.00    95798.0    75405.0    0.23937
   7660.11    47.7255       1.00    96286.0    75592.0    0.24197
   7670.03    47.6599       1.00    95740.0    76124.0    0.22927
   7680.13    47.5934       1.00    96476.0    76957.0    0.22605
   7690.11    47.5278       1.00    96542.0    77182.0    0.22381
   7700.11    47.4623       1.00    96808.0    78028.0    0.21566
   7710.14    47.3968       1.00    97475.0    78278.0    0.21933
   7720.04    47.3322       1.00    96883.0    79044.0    0.20350
   7730.12    47.2668       1.00    97471.0    79721.0    0.20102
   7740.08    47.2023       1.00    97282.0    80312.0    0.19169
   7750.06    47.1378       1.00    97959.0    81163.0    0.18809
   7760.06    47.0734       1.00    97744.0    81143.0    0.18614
   7770.10    47.0089       1.00    97454.0    81347.0    0.18066
   7780.00    46.9455       1.00    98049.0    82508.0    0.17257
   7790.09    46.8811       1.00    98402.0    82873.0    0.17175
   7800.04    46.8176       1.00    98732.0    83967.0    0.16199
   7810.03    46.7542       1.00    98500.0    84088.0    0.15819
   7820.04    46.6908       1.00    99362.0    84391.0    0.16331
   7830.07    46.6275       1.00    98701.0    85354.0    0.14529
   7840.13    46.5641       1.00    98749.0    85670.0    0.14208
   7850.06    46.5018       1.00    99317.0    86282.0    0.14070
   7860.02    46.4394       1.00    99520.0    86550.0    0.13964
   7870.00    46.3771       1.00    99582.0    87412.0    0.13035
   7880.00    46.3147       1.00    99595.0    87769.0    0.12640
   7890.03    46.2524       1.00   100134.0    88147.0    0.12750
   7900.09    46.1901       1.00   100390.0    89171.0    0.11851
   7910.02    46.1288       1.00   100370.0    88461.0    0.12630
   7920.12    46.0666       1.00   100153.0    75843.0    0.27803
   7930.10    46.0053       1.00   100300.0    65993.0    0.41862
   7940.10    45.9440       1.00   100516.0    74914.0    0.29398
   7950.13    45.8828       1.00   100690.0    75130.0    0.29283
   7960.02    45.8225       1.00   101058.0    74234.0    0.30847
   7970.09    45.7613       1.00   100919.0    74800.0    0.29950
   7980.04    45.7010       1.00   100698.0    76960.0    0.26884
   7990.00    45.6408       1.00   101324.0    77467.0    0.26847
