 0102    Rigaku R-XAS Looper
Gd                23/11/2023 11:18 -
Comment    :  exafstest
Sample     :  test
Operator   :  exafs
core       :  Cu
edge       :  K
XG         :  15 kV    30 mA
Filament   :  LaB6
Target     :  Mo
Io Counter :  Ar-300
I Counter  :  SC
Attachment :  None
0
0
0
Crystal    :  Ge(220)   2d = 4.00081
Monochro   :  omega -0.207    tilt 0.052     z 0.3
Slits      :  DS =  4.00 mm     RS =  2.00 mm     HS = 10 mm
RX-78         Transmission        Repetition = 1
 
Block        Energy        Step/eV       Time/s
    1          7150          10.00            1
    2          8000           1.00            2
    3          7250          30.00            1
    4          7910           1.00            2
    5          7935          30.00            1
    6          8000           1.00            1
 
 Energy(eV)    Angle      time/s       Io          I
   7150.04    51.3679       1.00    81791.0    78319.0    0.04338
   7160.11    51.2904       1.00    81804.0    78695.0    0.03875
   7170.07    51.2139       1.00    82458.0    79705.0    0.03396
   7180.07    51.1375       1.00    82381.0    80071.0    0.02844
   7190.09    51.0611       1.00    82827.0    81109.0    0.02096
   7200.01    50.9857       1.00    83493.0    81472.0    0.02450
   7210.09    50.9094       1.00    83965.0    82511.0    0.01747
   7220.06    50.8340       1.00    84698.0    81812.0    0.03467
   7230.06    50.7587       1.00    84549.0    77224.0    0.09062
   7240.09    50.6834       1.00    84462.0    43806.0    0.65653
   7250.02    50.6091       1.00    84857.0    47855.0    0.57279
   7260.10    50.5339       1.00    85192.0    55843.0    0.42236
   7270.08    50.4596       1.00    85732.0    53653.0    0.46869
   7280.09    50.3854       1.00    86039.0    51739.0    0.50859
   7290.12    50.3112       1.00    86126.0    54567.0    0.45638
   7300.05    50.2380       1.00    86252.0    56370.0    0.42534
   7310.01    50.1649       1.00    86451.0    56376.0    0.42753
   7320.13    50.0908       1.00    86498.0    55562.0    0.44262
   7330.00    50.0186       1.00    87515.0    56027.0    0.44598
   7340.04    49.9456       1.00    87660.0    57292.0    0.42530
   7350.10    49.8725       1.00    88419.0    58079.0    0.42028
   7360.06    49.8004       1.00    89224.0    58954.0    0.41439
   7370.04    49.7284       1.00    90183.0    61032.0    0.39044
   7380.05    49.6564       1.00    91822.0    62084.0    0.39136
   7390.09    49.5844       1.00    91261.0    60397.0    0.41278
   7400.02    49.5134       1.00    90768.0    60883.0    0.39935
   7410.11    49.4414       1.00    90420.0    61496.0    0.38549
   7420.09    49.3705       1.00    91041.0    62072.0    0.38301
   7430.10    49.2995       1.00    90645.0    62363.0    0.37398
   7440.13    49.2286       1.00    91257.0    62901.0    0.37212
   7450.05    49.1587       1.00    92150.0    64326.0    0.35945
   7460.00    49.0888       1.00    92051.0    64920.0    0.34919
   7470.12    49.0180       1.00    95246.0    67011.0    0.35161
   7480.12    48.9481       1.00    92189.0    65446.0    0.34262
   7490.00    48.8793       1.00    92518.0    65529.0    0.34491
   7500.06    48.8095       1.00    92597.0    66291.0    0.33420
   7510.00    48.7407       1.00    93005.0    67232.0    0.32450
   7520.11    48.6709       1.00    92719.0    67752.0    0.31372
   7530.10    48.6021       1.00    92979.0    67830.0    0.31537
   7540.12    48.5334       1.00    92653.0    68301.0    0.30494
   7550.03    48.4656       1.00    93751.0    69236.0    0.30312
   7560.10    48.3969       1.00    94130.0    69642.0    0.30131
   7570.05    48.3292       1.00    94192.0    70240.0    0.29342
   7580.04    48.2615       1.00    94649.0    71007.0    0.28740
   7590.04    48.1938       1.00    94792.0    71615.0    0.28038
   7600.08    48.1262       1.00    94492.0    72544.0    0.26432
   7609.99    48.0595       1.00    94483.0    73032.0    0.25752
   7620.08    47.9919       1.00    95030.0    73320.0    0.25936
   7630.05    47.9253       1.00    95969.0    73651.0    0.26469
   7640.04    47.8586       1.00    95403.0    74512.0    0.24715
   7650.06    47.7921       1.00    95854.0    75101.0    0.24399
   7660.11    47.7255       1.00    96615.0    75917.0    0.24109
   7670.03    47.6599       1.00    95570.0    76243.0    0.22593
   7680.13    47.5934       1.00    96608.0    76973.0    0.22721
   7690.11    47.5278       1.00    96185.0    76991.0    0.22258
   7700.11    47.4623       1.00    97072.0    77761.0    0.22181
   7710.14    47.3968       1.00    97056.0    78200.0    0.21602
   7720.04    47.3322       1.00    97411.0    79228.0    0.20661
   7730.12    47.2668       1.00    97082.0    79467.0    0.20021
   7740.08    47.2023       1.00    97551.0    80237.0    0.19539
   7750.06    47.1378       1.00    98091.0    80671.0    0.19552
   7760.06    47.0734       1.00    97735.0    81149.0    0.18597
   7770.10    47.0089       1.00    97886.0    81724.0    0.18046
   7780.00    46.9455       1.00    98007.0    82118.0    0.17688
   7790.09    46.8811       1.00    98193.0    82994.0    0.16817
   7800.04    46.8176       1.00    98960.0    83398.0    0.17109
   7810.03    46.7542       1.00    98690.0    84202.0    0.15876
   7820.04    46.6908       1.00    98777.0    84948.0    0.15083
   7830.07    46.6275       1.00    98921.0    85732.0    0.14310
   7840.13    46.5641       1.00    99176.0    86136.0    0.14097
   7850.06    46.5018       1.00    99164.0    86273.0    0.13926
   7860.02    46.4394       1.00    99346.0    87247.0    0.12987
   7870.00    46.3771       1.00   100197.0    88104.0    0.12862
   7880.00    46.3147       1.00   100229.0    87922.0    0.13101
   7890.03    46.2524       1.00    99836.0    88722.0    0.11802
   7900.09    46.1901       1.00   100402.0    88787.0    0.12294
   7910.02    46.1288       1.00   100085.0    88778.0    0.11988
   7920.12    46.0666       1.00   100664.0    76151.0    0.27907
   7930.10    46.0053       1.00   100443.0    66426.0    0.41350
   7940.10    45.9440       1.00   100573.0    75304.0    0.28935
   7950.13    45.8828       1.00   100511.0    75670.0    0.28389
   7960.02    45.8225       1.00   101131.0    73740.0    0.31587
   7970.09    45.7613       1.00   100579.0    75369.0    0.28855
   7980.04    45.7010       1.00   101132.0    76885.0    0.27412
   7990.00    45.6408       1.00   101277.0    77233.0    0.27103
   7250.02    50.6091       1.00    84923.0    47265.0    0.58597
   7280.09    50.3854       1.00    86466.0    51768.0    0.51298
   7310.01    50.1649       1.00    85878.0    56203.0    0.42396
   7340.04    49.9456       1.00    87596.0    56518.0    0.43818
   7370.04    49.7284       1.00    90567.0    61097.0    0.39363
   7400.02    49.5134       1.00    90650.0    60766.0    0.39998
   7430.10    49.2995       1.00    90320.0    62230.0    0.37252
   7460.00    49.0888       1.00    91900.0    64852.0    0.34859
   7490.00    48.8793       1.00    92179.0    65408.0    0.34309
   7520.11    48.6709       1.00    93196.0    67761.0    0.31872
   7550.03    48.4656       1.00    93275.0    69095.0    0.30007
   7580.04    48.2615       1.00    94104.0    71082.0    0.28057
   7609.99    48.0595       1.00    95444.0    72991.0    0.26820
   7640.04    47.8586       1.00    95100.0    74454.0    0.24475
   7670.03    47.6599       1.00    96468.0    76198.0    0.23588
   7700.11    47.4623       1.00    97283.0    77632.0    0.22564
   7730.12    47.2668       1.00    97739.0    79963.0    0.20074
   7760.06    47.0734       1.00    98319.0    80849.0    0.19563
   7790.09    46.8811       1.00    98254.0    82639.0    0.17307
   7820.04    46.6908       1.00    99506.0    85261.0    0.15450
   7850.06    46.5018       1.00    99683.0    86587.0    0.14085
   7880.00    46.3147       1.00    99743.0    88188.0    0.12313
   7910.02    46.1288       2.00   200192.0   176208.0    0.12761
