 0102    Rigaku R-XAS Looper
Hf                23/11/2023 12:28 -
Comment    :  exafstest
Sample     :  test
Operator   :  exafs
core       :  Cu
edge       :  K
XG         :  20 kV    30 mA
Filament   :  LaB6
Target     :  Mo
Io Counter :  Ar-300
I Counter  :  SC
Attachment :  None
0
0
0
Crystal    :  Si(400)   2d = 2.71500
Monochro   :  omega -0.208    tilt 0.042     z 0.3
Slits      :  DS =  4.00 mm     RS =  2.00 mm     HS = 10 mm
RX-78         Transmission        Repetition = 1
 
Block        Energy        Step/eV       Time/s
    1          9500          10.00            1
    2          9545           1.00            2
    3          9580          80.00            1
    4         10720           1.00            2
    5         10750          10.00            1
    6         10900           1.00            1
 
 Energy(eV)    Angle      time/s       Io          I
   9500.21    57.4586       1.00    64876.0   163182.0   -0.92239
   9510.25    57.3922       1.00    65944.0   165095.0   -0.91772
   9520.17    57.3269       1.00    68222.0   170415.0   -0.91547
   9530.26    57.2606       1.00    67612.0   170125.0   -0.92275
   9540.21    57.1954       1.00    66257.0   163402.0   -0.90267
   9545.20    57.1627       2.00   132138.0   318673.0   -0.88032
   9546.29    57.1556       2.00   132030.0   314763.0   -0.86879
   9547.23    57.1495       2.00   132440.0   310802.0   -0.85303
   9548.16    57.1434       2.00   131493.0   307033.0   -0.84800
   9549.25    57.1362       2.00   131730.0   299051.0   -0.81986
   9550.19    57.1301       2.00   131928.0   291735.0   -0.79359
   9551.28    57.1230       2.00   132446.0   279503.0   -0.74684
   9552.22    57.1169       2.00   132054.0   268105.0   -0.70817
   9553.15    57.1108       2.00   132026.0   254426.0   -0.65601
   9554.25    57.1036       2.00   132352.0   235051.0   -0.57434
   9555.18    57.0975       2.00   132449.0   217836.0   -0.49754
   9556.28    57.0904       2.00   132250.0   195632.0   -0.39154
   9557.22    57.0843       2.00   131930.0   177616.0   -0.29735
   9558.15    57.0781       2.00   132359.0   158087.0   -0.17763
   9559.25    57.0710       2.00   132518.0   138809.0   -0.04638
   9560.19    57.0649       2.00   132697.0   124300.0    0.06537
   9561.28    57.0578       2.00   132462.0   111405.0    0.17312
   9562.22    57.0516       2.00   132698.0   104163.0    0.24212
   9563.16    57.0455       2.00   133730.0   102048.0    0.27038
   9564.25    57.0384       2.00   133790.0   103372.0    0.25794
   9565.19    57.0323       2.00   133660.0   108333.0    0.21009
   9566.29    57.0252       2.00   133992.0   115973.0    0.14442
   9567.23    57.0190       2.00   133134.0   125453.0    0.05942
   9568.17    57.0129       2.00   134025.0   135736.0   -0.01269
   9569.26    57.0058       2.00   134983.0   147183.0   -0.08653
   9570.20    56.9997       2.00   134578.0   157530.0   -0.15747
   9571.30    56.9926       2.00   134359.0   167437.0   -0.22009
   9572.24    56.9864       2.00   133614.0   174819.0   -0.26880
   9573.18    56.9803       2.00   133835.0   181652.0   -0.30549
   9574.28    56.9732       2.00   134487.0   187406.0   -0.33181
   9575.22    56.9671       2.00   133664.0   190051.0   -0.35196
   9576.16    56.9610       2.00   134167.0   193386.0   -0.36560
   9577.26    56.9538       2.00   133905.0   195963.0   -0.38080
   9578.20    56.9477       2.00   133843.0   198390.0   -0.39357
   9579.30    56.9406       2.00   133435.0   199951.0   -0.40446
   9580.24    56.9345       1.00    66791.0    99957.0   -0.40317
   9660.20    56.4208       1.00    82256.0   117946.0   -0.36039
   9740.21    55.9165       1.00    68961.0   103197.0   -0.40310
   9820.23    55.4215       1.00    77097.0   120549.0   -0.44699
   9900.23    54.9356       1.00    73812.0   120454.0   -0.48975
   9980.19    54.4589       1.00    75773.0   130596.0   -0.54437
  10060.24    53.9902       1.00    76563.0   136682.0   -0.57954
  10140.17    53.5305       1.00    78500.0   145975.0   -0.62034
  10220.31    53.0777       1.00    79252.0   153955.0   -0.66403
  10300.28    52.6339       1.00    80429.0   163361.0   -0.70859
  10380.21    52.1978       1.00    81972.0   172413.0   -0.74352
  10460.28    51.7685       1.00    83706.0   181724.0   -0.77518
  10540.25    51.3470       1.00    84735.0   190937.0   -0.81241
  10620.31    50.9322       1.00    85974.0   201026.0   -0.84939
  10700.21    50.5250       1.00    86584.0   208983.0   -0.88114
  10720.23    50.4240       2.00   174798.0   408391.0   -0.84859
  10721.21    50.4191       2.00   176210.0   403572.0   -0.82868
  10722.20    50.4141       2.00   176226.0   399922.0   -0.81950
  10723.38    50.4082       2.00   174992.0   392438.0   -0.80764
  10724.36    50.4032       2.00   175305.0   383923.0   -0.78391
  10725.34    50.3983       2.00   175600.0   378310.0   -0.76751
  10726.33    50.3933       2.00   175221.0   367063.0   -0.73949
  10727.31    50.3884       2.00   175121.0   356783.0   -0.71165
  10728.30    50.3834       2.00   175003.0   346343.0   -0.68263
  10729.28    50.3785       2.00   175580.0   334320.0   -0.64400
  10730.27    50.3735       2.00   175878.0   322683.0   -0.60688
  10731.25    50.3686       2.00   175484.0   310969.0   -0.57215
  10732.24    50.3637       2.00   174761.0   301176.0   -0.54428
  10733.22    50.3587       2.00   176301.0   291072.0   -0.50138
  10734.21    50.3538       2.00   175276.0   283505.0   -0.48087
  10735.19    50.3488       2.00   175517.0   278684.0   -0.46234
  10736.38    50.3429       2.00   175503.0   273719.0   -0.44445
  10737.36    50.3379       2.00   176206.0   270614.0   -0.42904
  10738.35    50.3330       2.00   175505.0   270866.0   -0.43396
  10739.33    50.3280       2.00   174939.0   272705.0   -0.44395
  10740.32    50.3231       2.00   175680.0   276045.0   -0.45190
  10741.31    50.3182       2.00   175917.0   280300.0   -0.46585
  10742.30    50.3132       2.00   175987.0   286398.0   -0.48697
  10743.28    50.3083       2.00   175108.0   292005.0   -0.51137
  10744.27    50.3033       2.00   175098.0   298832.0   -0.53454
  10745.26    50.2984       2.00   175603.0   305254.0   -0.55292
  10746.25    50.2934       2.00   175285.0   312317.0   -0.57761
  10747.23    50.2885       2.00   175645.0   317765.0   -0.59285
  10748.22    50.2835       2.00   175056.0   324713.0   -0.61784
  10749.21    50.2786       2.00   175767.0   327963.0   -0.62374
  10750.20    50.2736       1.00    87868.0   166237.0   -0.63758
  10760.29    50.2232       1.00    88305.0   172348.0   -0.66872
  10770.20    50.1738       1.00    88054.0   168349.0   -0.64809
  10780.33    50.1234       1.00    89080.0   165380.0   -0.61871
  10790.29    50.0740       1.00    88178.0   169426.0   -0.65306
  10800.25    50.0246       1.00    88873.0   173712.0   -0.67019
  10810.24    49.9752       1.00    88896.0   175284.0   -0.67894
  10820.25    49.9258       1.00    89075.0   174672.0   -0.67343
  10830.27    49.8764       1.00    89166.0   175227.0   -0.67558
  10840.31    49.8271       1.00    89492.0   174460.0   -0.66755
  10850.38    49.7777       1.00    88898.0   174216.0   -0.67281
  10860.25    49.7294       1.00    89950.0   176359.0   -0.67327
  10870.35    49.6800       1.00    89714.0   178792.0   -0.68960
  10880.27    49.6317       1.00    89766.0   180101.0   -0.69631
  10890.20    49.5834       1.00    89592.0   180705.0   -0.70160
