 0102    Rigaku R-XAS Looper
Pb                23/11/2023 13:58 -
Comment    :  exafstest
Sample     :  test
Operator   :  exafs
core       :  Cu
edge       :  K
XG         :  20 kV    30 mA
Filament   :  LaB6
Target     :  Mo
Io Counter :  Ar-300
I Counter  :  SC
Attachment :  None
0
0
0
Crystal    :  Si(400)   2d = 2.71500
Monochro   :  omega -0.208    tilt 0.042     z 0.3
Slits      :  DS =  4.00 mm     RS =  2.00 mm     HS = 10 mm
RX-78         Transmission        Repetition = 1
 
Block        Energy        Step/eV       Time/s
    1         12950          10.00            1
    2         13010           1.00            2
    3         13060         120.00            1
    4         15150           1.00            2
    5         15200          10.00            1
    6         15300           1.00            1
 
 Energy(eV)    Angle      time/s       Io          I
  12950.54    41.2940       1.00    88552.0   282491.0   -1.16006
  12960.31    41.2615       1.00    88822.0   282600.0   -1.15740
  12970.37    41.2280       1.00    88541.0   282603.0   -1.16058
  12980.45    41.1945       1.00    88463.0   281102.0   -1.15613
  12990.55    41.1611       1.00    88285.0   280958.0   -1.15763
  13000.37    41.1285       1.00    87656.0   280029.0   -1.16147
  13010.50    41.0951       2.00   175702.0   549527.0   -1.14027
  13011.37    41.0922       2.00   176397.0   549481.0   -1.13624
  13012.53    41.0884       2.00   175769.0   546618.0   -1.13458
  13013.40    41.0855       2.00   176653.0   544329.0   -1.12537
  13014.56    41.0817       2.00   175634.0   541276.0   -1.12553
  13015.43    41.0788       2.00   176940.0   539819.0   -1.11542
  13016.30    41.0760       2.00   175806.0   536397.0   -1.11549
  13017.45    41.0721       2.00   175477.0   533856.0   -1.11262
  13018.32    41.0693       2.00   176401.0   530147.0   -1.10039
  13019.48    41.0654       2.00   175353.0   524444.0   -1.09554
  13020.35    41.0626       2.00   176007.0   520501.0   -1.08427
  13021.51    41.0588       2.00   175748.0   515081.0   -1.07527
  13022.39    41.0559       2.00   176119.0   512538.0   -1.06821
  13023.55    41.0521       2.00   175275.0   504735.0   -1.05768
  13024.42    41.0492       2.00   174947.0   500016.0   -1.05016
  13025.29    41.0463       2.00   176056.0   495054.0   -1.03386
  13026.45    41.0425       2.00   176051.0   488373.0   -1.02031
  13027.32    41.0396       2.00   175363.0   482090.0   -1.01127
  13028.48    41.0358       2.00   176325.0   475470.0   -0.99197
  13029.35    41.0329       2.00   175591.0   469763.0   -0.98407
  13030.51    41.0291       2.00   175320.0   460740.0   -0.96622
  13031.39    41.0263       2.00   175937.0   455965.0   -0.95229
  13032.55    41.0224       2.00   175844.0   448100.0   -0.93542
  13033.42    41.0196       2.00   175675.0   440021.0   -0.91819
  13034.29    41.0167       2.00   175312.0   435297.0   -0.90946
  13035.45    41.0129       2.00   174439.0   427825.0   -0.89714
  13036.33    41.0100       2.00   175067.0   421383.0   -0.87837
  13037.49    41.0062       2.00   175581.0   413446.0   -0.85643
  13038.36    41.0033       2.00   175499.0   408531.0   -0.84493
  13039.53    40.9995       2.00   175504.0   400374.0   -0.82474
  13040.40    40.9966       2.00   175394.0   395885.0   -0.81409
  13041.56    40.9928       2.00   174844.0   388554.0   -0.79854
  13042.43    40.9899       2.00   174820.0   384495.0   -0.78817
  13043.31    40.9871       2.00   175227.0   380005.0   -0.77410
  13044.47    40.9832       2.00   175438.0   375231.0   -0.76026
  13045.35    40.9804       2.00   175046.0   371280.0   -0.75191
  13046.51    40.9766       2.00   175167.0   366730.0   -0.73889
  13047.38    40.9737       2.00   175777.0   362514.0   -0.72385
  13048.55    40.9699       2.00   174690.0   359394.0   -0.72141
  13049.42    40.9670       2.00   174914.0   356983.0   -0.71339
  13050.30    40.9641       2.00   175741.0   353046.0   -0.69759
  13051.46    40.9603       2.00   175131.0   351123.0   -0.69560
  13052.34    40.9574       2.00   175469.0   349810.0   -0.68993
  13053.50    40.9536       2.00   175551.0   346860.0   -0.68099
  13054.38    40.9507       2.00   174939.0   346372.0   -0.68308
  13055.54    40.9469       2.00   175594.0   344040.0   -0.67258
  13056.42    40.9441       2.00   175709.0   342196.0   -0.66655
  13057.29    40.9412       2.00   175134.0   341734.0   -0.66848
  13058.46    40.9374       2.00   174455.0   340429.0   -0.66854
  13059.34    40.9345       2.00   175298.0   338942.0   -0.65934
  13060.50    40.9307       1.00    86750.0   169676.0   -0.67086
  13180.37    40.5420       1.00    85020.0   167003.0   -0.67513
  13300.33    40.1605       1.00    81780.0   167081.0   -0.71445
  13420.35    39.7861       1.00    79657.0   168836.0   -0.75120
  13540.35    39.4188       1.00    77115.0   168446.0   -0.78132
  13660.60    39.0577       1.00    74253.0   168077.0   -0.81694
  13780.41    38.7045       1.00    73017.0   169403.0   -0.84159
  13900.35    38.3574       1.00    71106.0   170472.0   -0.87440
  14020.38    38.0164       1.00    69206.0   170457.0   -0.90140
  14140.45    37.6813       1.00    67784.0   168218.0   -0.90893
  14260.51    37.3523       1.00    65355.0   164708.0   -0.92434
  14380.50    37.0293       1.00    62461.0   161366.0   -0.94913
  14500.37    36.7122       1.00    59821.0   156732.0   -0.96318
  14620.42    36.4001       1.00    57200.0   151771.0   -0.97582
  14740.62    36.0930       1.00    54351.0   146928.0   -0.99448
  14860.54    35.7919       1.00    51802.0   140873.0   -1.00043
  14980.52    35.4957       1.00    49552.0   134768.0   -1.00053
  15100.49    35.2044       1.00    46875.0   128315.0   -1.00700
  15150.59    35.0842       2.00    90879.0   250449.0   -1.01373
  15151.38    35.0823       2.00    90931.0   249960.0   -1.01120
  15152.55    35.0795       2.00    90507.0   250230.0   -1.01695
  15153.73    35.0767       2.00    90635.0   250068.0   -1.01489
  15154.52    35.0748       2.00    91080.0   249563.0   -1.00797
  15155.70    35.0720       2.00    90619.0   248959.0   -1.01062
  15156.48    35.0701       2.00    91087.0   249624.0   -1.00814
  15157.66    35.0673       2.00    90799.0   248541.0   -1.00696
  15158.45    35.0654       2.00    90611.0   248949.0   -1.01067
  15159.63    35.0626       2.00    91042.0   247678.0   -1.00081
  15160.41    35.0607       2.00    91269.0   247607.0   -0.99803
  15161.59    35.0579       2.00    90116.0   247113.0   -1.00875
  15162.38    35.0560       2.00    90238.0   247515.0   -1.00902
  15163.56    35.0532       2.00    90688.0   246740.0   -1.00091
  15164.74    35.0504       2.00    90206.0   246140.0   -1.00380
  15165.53    35.0485       2.00    90307.0   246285.0   -1.00327
  15166.71    35.0457       2.00    90214.0   244919.0   -0.99874
  15167.50    35.0438       2.00    90001.0   245191.0   -1.00222
  15168.68    35.0410       2.00    89700.0   243881.0   -1.00021
  15169.46    35.0391       2.00    90180.0   242769.0   -0.99030
  15170.64    35.0363       2.00    89810.0   243198.0   -0.99618
  15171.43    35.0344       2.00    90292.0   242490.0   -0.98791
  15172.61    35.0316       2.00    89492.0   241963.0   -0.99464
  15173.40    35.0297       2.00    90211.0   241105.0   -0.98308
  15174.58    35.0269       2.00    89767.0   240755.0   -0.98656
  15175.76    35.0241       2.00    89921.0   239420.0   -0.97929
  15176.55    35.0222       2.00    90178.0   240178.0   -0.97959
  15177.74    35.0194       2.00    89471.0   239220.0   -0.98347
  15178.52    35.0175       2.00    89928.0   238201.0   -0.97411
  15179.71    35.0147       2.00    90101.0   236989.0   -0.96708
  15180.49    35.0128       2.00    89700.0   237027.0   -0.97170
  15181.68    35.0100       2.00    90318.0   235789.0   -0.95960
  15182.47    35.0081       2.00    90092.0   235133.0   -0.95932
  15183.65    35.0053       2.00    89937.0   233936.0   -0.95594
  15184.44    35.0034       2.00    88982.0   233642.0   -0.96536
  15185.62    35.0006       2.00    89621.0   232947.0   -0.95522
  15186.41    34.9987       2.00    89797.0   232038.0   -0.94935
  15187.59    34.9959       2.00    89797.0   230996.0   -0.94485
  15188.38    34.9941       2.00    89091.0   231623.0   -0.95545
  15189.57    34.9912       2.00    89382.0   230617.0   -0.94784
  15190.75    34.9884       2.00    89173.0   228332.0   -0.94022
  15191.54    34.9865       2.00    89271.0   227804.0   -0.93681
  15192.73    34.9837       2.00    89109.0   226293.0   -0.93197
  15193.52    34.9819       2.00    88891.0   226281.0   -0.93437
  15194.70    34.9790       2.00    89480.0   225372.0   -0.92374
  15195.49    34.9772       2.00    89049.0   225584.0   -0.92951
  15196.68    34.9743       2.00    88798.0   225032.0   -0.92988
  15197.47    34.9725       2.00    88995.0   223476.0   -0.92072
  15198.65    34.9696       2.00    89274.0   222674.0   -0.91400
  15199.44    34.9678       2.00    89286.0   222524.0   -0.91319
  15200.63    34.9650       1.00    44264.0   110289.0   -0.91293
  15210.52    34.9415       1.00    43850.0   108077.0   -0.90207
  15220.42    34.9180       1.00    43916.0   105151.0   -0.87312
  15230.73    34.8936       1.00    43696.0   104846.0   -0.87524
  15240.66    34.8702       1.00    43496.0   103420.0   -0.86613
  15250.60    34.8467       1.00    43569.0   102874.0   -0.85916
  15260.55    34.8233       1.00    43166.0   102592.0   -0.86571
  15270.52    34.7998       1.00    43190.0   102545.0   -0.86469
  15280.50    34.7763       1.00    42994.0   101549.0   -0.85948
  15290.50    34.7529       1.00    42508.0   101050.0   -0.86592
