 0102    Rigaku R-XAS Looper
Pt                23/11/2023 13:12 -
Comment    :  exafstest
Sample     :  test
Operator   :  exafs
core       :  Cu
edge       :  K
XG         :  20 kV    30 mA
Filament   :  LaB6
Target     :  Mo
Io Counter :  Ar-300
I Counter  :  SC
Attachment :  None
0
0
0
Crystal    :  Si(400)   2d = 2.71500
Monochro   :  omega -0.208    tilt 0.042     z 0.3
Slits      :  DS =  4.00 mm     RS =  2.00 mm     HS = 10 mm
RX-78         Transmission        Repetition = 1
 
Block        Energy        Step/eV       Time/s
    1         11450          10.00            1
    2         11540           1.00            2
    3         11580         100.00            1
    4         13240           1.00            2
    5         13280          10.00            1
    6         13400           1.00            1
 
 Energy(eV)    Angle      time/s       Io          I
  11450.42    47.0070       1.00    93932.0   219972.0   -0.85093
  11460.30    46.9640       1.00    94984.0   222070.0   -0.84928
  11470.42    46.9201       1.00    94983.0   223563.0   -0.85600
  11480.33    46.8772       1.00    94723.0   224427.0   -0.86259
  11490.26    46.8342       1.00    95292.0   224431.0   -0.85662
  11500.44    46.7903       1.00    95000.0   225666.0   -0.86518
  11510.40    46.7474       1.00    95257.0   225173.0   -0.86029
  11520.38    46.7045       1.00    95503.0   225615.0   -0.85967
  11530.38    46.6616       1.00    95404.0   222169.0   -0.84532
  11540.40    46.6187       2.00   190737.0   411489.0   -0.76889
  11541.31    46.6148       2.00   190156.0   405316.0   -0.75682
  11542.22    46.6109       2.00   190080.0   397011.0   -0.73652
  11543.36    46.6060       2.00   190357.0   387304.0   -0.71031
  11544.28    46.6021       2.00   190714.0   378037.0   -0.68422
  11545.42    46.5973       2.00   190464.0   365861.0   -0.65279
  11546.33    46.5934       2.00   190000.0   355349.0   -0.62608
  11547.24    46.5895       2.00   190115.0   342942.0   -0.58993
  11548.38    46.5846       2.00   190228.0   326317.0   -0.53965
  11549.29    46.5807       2.00   190067.0   311953.0   -0.49548
  11550.43    46.5758       2.00   190172.0   295947.0   -0.44225
  11551.35    46.5719       2.00   190131.0   280723.0   -0.38966
  11552.26    46.5680       2.00   189852.0   266674.0   -0.33978
  11553.40    46.5631       2.00   190728.0   247878.0   -0.26209
  11554.32    46.5592       2.00   191017.0   234216.0   -0.20388
  11555.23    46.5553       2.00   190652.0   219224.0   -0.13964
  11556.37    46.5505       2.00   189133.0   201904.0   -0.06534
  11557.29    46.5466       2.00   190382.0   188733.0    0.00870
  11558.43    46.5417       2.00   191322.0   173078.0    0.10022
  11559.34    46.5378       2.00   189957.0   161686.0    0.16114
  11560.26    46.5339       2.00   190023.0   150389.0    0.23392
  11561.40    46.5290       2.00   190228.0   138366.0    0.31832
  11562.32    46.5251       2.00   190969.0   129235.0    0.39048
  11563.23    46.5212       2.00   191249.0   121651.0    0.45242
  11564.37    46.5164       2.00   191612.0   113837.0    0.52070
  11565.29    46.5125       2.00   189741.0   108314.0    0.56063
  11566.43    46.5076       2.00   190393.0   102966.0    0.61469
  11567.35    46.5037       2.00   190709.0    99229.0    0.65332
  11568.27    46.4998       2.00   190217.0    97031.0    0.67314
  11569.41    46.4949       2.00   190260.0    94466.0    0.70015
  11570.33    46.4910       2.00   191031.0    92792.0    0.72208
  11571.24    46.4871       2.00   191563.0    91591.0    0.73788
  11572.39    46.4823       2.00   190770.0    91541.0    0.73428
  11573.30    46.4784       2.00   190730.0    90801.0    0.74219
  11574.22    46.4745       2.00   190990.0    89902.0    0.75350
  11575.37    46.4696       2.00   190720.0    89452.0    0.75710
  11576.28    46.4657       2.00   190851.0    88913.0    0.76383
  11577.43    46.4608       2.00   190439.0    88909.0    0.76172
  11578.35    46.4569       2.00   190862.0    88744.0    0.76579
  11579.27    46.4530       2.00   191171.0    88575.0    0.76932
  11580.41    46.4482       1.00    95459.0    44173.0    0.77058
  11680.38    46.0276       1.00    97303.0    46472.0    0.73898
  11780.43    45.6146       1.00    96266.0    51235.0    0.63069
  11880.28    45.2099       1.00    96096.0    53195.0    0.59138
  11980.36    44.8116       1.00    95147.0    57312.0    0.50691
  12080.39    44.4207       1.00    96109.0    62693.0    0.42723
  12180.33    44.0370       1.00    95394.0    68326.0    0.33373
  12280.39    43.6597       1.00    95411.0    73758.0    0.25740
  12380.27    43.2896       1.00    94446.0    79895.0    0.16731
  12480.46    42.9248       1.00    94080.0    85445.0    0.09627
  12580.38    42.5672       1.00    93442.0    90416.0    0.03292
  12680.27    42.2158       1.00    92131.0    97016.0   -0.05166
  12780.36    41.8695       1.00    90930.0   102269.0   -0.11752
  12880.34    41.5294       1.00    89177.0   108683.0   -0.19781
  12980.45    41.1945       1.00    88792.0   114058.0   -0.25041
  13080.38    40.8657       1.00    86767.0   118985.0   -0.31577
  13180.37    40.5420       1.00    84644.0   124282.0   -0.38410
  13240.38    40.3502       2.00   167412.0   240457.0   -0.36208
  13241.58    40.3464       2.00   166316.0   237582.0   -0.35662
  13242.48    40.3436       2.00   166357.0   236405.0   -0.35141
  13243.38    40.3407       2.00   166607.0   234988.0   -0.34390
  13244.58    40.3369       2.00   166994.0   232342.0   -0.33025
  13245.48    40.3340       2.00   166578.0   230124.0   -0.32315
  13246.38    40.3312       2.00   166420.0   227369.0   -0.31206
  13247.58    40.3274       2.00   167305.0   224222.0   -0.29282
  13248.48    40.3245       2.00   165549.0   221737.0   -0.29222
  13249.38    40.3216       2.00   166162.0   219481.0   -0.27830
  13250.58    40.3178       2.00   166316.0   214922.0   -0.25639
  13251.49    40.3150       2.00   165759.0   213194.0   -0.25167
  13252.39    40.3121       2.00   165741.0   210640.0   -0.23972
  13253.29    40.3092       2.00   166191.0   207508.0   -0.22203
  13254.49    40.3054       2.00   165881.0   203771.0   -0.20573
  13255.39    40.3026       2.00   165785.0   199833.0   -0.18679
  13256.29    40.2997       2.00   166272.0   197257.0   -0.17088
  13257.50    40.2959       2.00   166152.0   193067.0   -0.15013
  13258.40    40.2930       2.00   165029.0   190341.0   -0.14270
  13259.30    40.2902       2.00   165934.0   186410.0   -0.11636
  13260.50    40.2864       2.00   166287.0   181871.0   -0.08958
  13261.41    40.2835       2.00   164974.0   179009.0   -0.08165
  13262.31    40.2806       2.00   165101.0   175851.0   -0.06308
  13263.51    40.2768       2.00   165368.0   172205.0   -0.04051
  13264.42    40.2740       2.00   165524.0   169629.0   -0.02450
  13265.32    40.2711       2.00   165137.0   166913.0   -0.01070
  13266.52    40.2673       2.00   164822.0   163400.0    0.00866
  13267.43    40.2644       2.00   165446.0   159767.0    0.03493
  13268.33    40.2616       2.00   165088.0   157733.0    0.04557
  13269.54    40.2577       2.00   164800.0   153583.0    0.07049
  13270.44    40.2549       2.00   164536.0   151648.0    0.08157
  13271.34    40.2520       2.00   165032.0   149999.0    0.09551
  13272.55    40.2482       2.00   164939.0   146747.0    0.11687
  13273.45    40.2454       2.00   164931.0   144571.0    0.13176
  13274.36    40.2425       2.00   164819.0   142844.0    0.14309
  13275.56    40.2387       2.00   164565.0   140474.0    0.15828
  13276.47    40.2358       2.00   164552.0   139440.0    0.16559
  13277.37    40.2330       2.00   164618.0   137508.0    0.17995
  13278.58    40.2291       2.00   164790.0   136279.0    0.18997
  13279.48    40.2263       2.00   165101.0   134417.0    0.20561
  13280.39    40.2234       1.00    83124.0    66733.0    0.21963
  13290.35    40.1920       1.00    81932.0    62841.0    0.26528
  13300.33    40.1605       1.00    81799.0    61721.0    0.28164
  13310.33    40.1291       1.00    82012.0    60825.0    0.29886
  13320.34    40.0976       1.00    80996.0    61245.0    0.27952
  13330.36    40.0662       1.00    80259.0    61961.0    0.25875
  13340.40    40.0347       1.00    81085.0    62758.0    0.25621
  13350.46    40.0033       1.00    81020.0    62818.0    0.25445
  13360.53    39.9718       1.00    80431.0    62170.0    0.25753
  13370.31    39.9413       1.00    80104.0    62437.0    0.24917
  13380.41    39.9099       1.00    80048.0    62855.0    0.24180
  13390.52    39.8785       1.00    79998.0    63729.0    0.22736
