 0102    Rigaku R-XAS Looper
Sm                23/11/2023 10:46 -
Comment    :  exafstest
Sample     :  test
Operator   :  exafs
core       :  Cu
edge       :  K
XG         :  15 kV    30 mA
Filament   :  LaB6
Target     :  Mo
Io Counter :  Ar-300
I Counter  :  SC
Attachment :  None
0
0
0
Crystal    :  Ge(220)   2d = 4.00081
Monochro   :  omega -0.207    tilt 0.052     z 0.3
Slits      :  DS =  4.00 mm     RS =  2.00 mm     HS = 10 mm
RX-78         Transmission        Repetition = 1
 
Block        Energy        Step/eV       Time/s
    1          6650          10.00            1
    2          6700           1.00            2
    3          6725          20.00            1
    4          7290           1.00            2
    5          7315          20.00            1
    6          7400           1.00            1
 
 Energy(eV)    Angle      time/s       Io          I
   6650.05    55.5489       1.00    63974.0    33413.0    0.64953
   6660.10    55.4579       1.00    64124.0    33955.0    0.63578
   6670.07    55.3679       1.00    64265.0    34418.0    0.62444
   6680.07    55.2779       1.00    64905.0    34945.0    0.61915
   6690.09    55.1880       1.00    65368.0    35066.0    0.62280
   6700.04    55.0991       2.00   131749.0    69485.0    0.63979
   6701.06    55.0900       2.00   131301.0    68829.0    0.64587
   6702.08    55.0809       2.00   131490.0    68874.0    0.64665
   6703.10    55.0719       2.00   131259.0    68228.0    0.65432
   6704.00    55.0638       2.00   131072.0    67188.0    0.66825
   6705.02    55.0547       2.00   132175.0    66579.0    0.68574
   6706.04    55.0456       2.00   132167.0    65515.0    0.70179
   6707.06    55.0365       2.00   132012.0    63724.0    0.72833
   6708.08    55.0274       2.00   132198.0    61169.0    0.77066
   6709.10    55.0184       2.00   132609.0    58434.0    0.81951
   6710.01    55.0103       2.00   132347.0    55989.0    0.86027
   6711.03    55.0012       2.00   132732.0    51789.0    0.94115
   6712.06    54.9921       2.00   132563.0    46890.0    1.03925
   6713.08    54.9830       2.00   132428.0    41526.0    1.15972
   6714.10    54.9740       2.00   133291.0    36098.0    1.30630
   6715.01    54.9659       2.00   133004.0    31571.0    1.43814
   6716.03    54.9568       2.00   132682.0    27450.0    1.57559
   6717.06    54.9477       2.00   132780.0    24641.0    1.68428
   6718.08    54.9386       2.00   133153.0    23029.0    1.75474
   6719.11    54.9296       2.00   132824.0    22741.0    1.76486
   6720.02    54.9215       2.00   133184.0    23593.0    1.73078
   6721.04    54.9124       2.00   132537.0    25592.0    1.64458
   6722.07    54.9033       2.00   133773.0    28193.0    1.55707
   6723.09    54.8942       2.00   133469.0    31285.0    1.45073
   6724.00    54.8862       2.00   133148.0    33257.0    1.38720
   6725.03    54.8771       1.00    66967.0    17744.0    1.32815
   6745.04    54.7006       1.00    67373.0    18732.0    1.28001
   6765.06    54.5253       1.00    68761.0    21085.0    1.18207
   6785.08    54.3512       1.00    69758.0    21071.0    1.19713
   6805.10    54.1781       1.00    69868.0    21195.0    1.19284
   6825.01    54.0073       1.00    70951.0    22515.0    1.14781
   6845.03    53.8365       1.00    71835.0    23300.0    1.12592
   6865.05    53.6669       1.00    72660.0    23542.0    1.12700
   6885.07    53.4984       1.00    73062.0    24693.0    1.08479
   6905.08    53.3310       1.00    74808.0    25173.0    1.08915
   6925.10    53.1648       1.00    74951.0    26095.0    1.05509
   6945.10    52.9997       1.00    75599.0    27137.0    1.02454
   6965.10    52.8357       1.00    76695.0    27890.0    1.01157
   6985.10    52.6728       1.00    77364.0    28666.0    0.99281
   7005.08    52.5110       1.00    78268.0    29614.0    0.97189
   7025.05    52.3504       1.00    78294.0    30425.0    0.94521
   7045.02    52.1908       1.00    79859.0    31831.0    0.91982
   7065.10    52.0314       1.00    80562.0    32247.0    0.91560
   7085.03    51.8740       1.00    80686.0    33495.0    0.87917
   7105.09    51.7168       1.00    81662.0    34147.0    0.87191
   7125.00    51.5617       1.00    80802.0    34050.0    0.86417
   7145.02    51.4066       1.00    81691.0    34668.0    0.85713
   7165.02    51.2527       1.00    82391.0    36216.0    0.82198
   7185.01    51.0998       1.00    82836.0    36808.0    0.81115
   7205.11    50.9470       1.00    84179.0    37670.0    0.80408
   7225.06    50.7963       1.00    84232.0    38974.0    0.77068
   7245.12    50.6458       1.00    84724.0    40013.0    0.75019
   7265.02    50.4972       1.00    85783.0    40864.0    0.74157
   7285.04    50.3488       1.00    86490.0    41761.0    0.72807
   7290.12    50.3112       2.00   172669.0    84395.0    0.71587
   7291.06    50.3043       2.00   172561.0    84334.0    0.71597
   7292.00    50.2974       2.00   172468.0    84102.0    0.71818
   7293.07    50.2895       2.00   172053.0    84673.0    0.70901
   7294.01    50.2825       2.00   171615.0    84118.0    0.71303
   7295.09    50.2746       2.00   172888.0    84046.0    0.72128
   7296.02    50.2677       2.00   172355.0    83275.0    0.72741
   7297.10    50.2598       2.00   172450.0    83054.0    0.73062
   7298.04    50.2529       2.00   172573.0    82462.0    0.73848
   7299.11    50.2450       2.00   173210.0    80845.0    0.76197
   7300.05    50.2380       2.00   172502.0    79606.0    0.77332
   7300.99    50.2311       2.00   173180.0    78476.0    0.79154
   7302.07    50.2232       2.00   172830.0    75447.0    0.82888
   7303.01    50.2163       2.00   172961.0    72648.0    0.86744
   7304.09    50.2084       2.00   172681.0    69007.0    0.91724
   7305.03    50.2015       2.00   172994.0    66088.0    0.96227
   7306.10    50.1936       2.00   173141.0    61941.0    1.02792
   7307.05    50.1866       2.00   173159.0    58667.0    1.08233
   7308.12    50.1787       2.00   173528.0    54994.0    1.14911
   7309.07    50.1718       2.00   172536.0    53000.0    1.18031
   7310.01    50.1649       2.00   173290.0    51840.0    1.20680
   7311.09    50.1570       2.00   172466.0    51170.0    1.21505
   7312.03    50.1501       2.00   173097.0    51638.0    1.20959
   7313.11    50.1422       2.00   173294.0    52416.0    1.19578
   7314.05    50.1352       2.00   172861.0    53426.0    1.17419
   7315.00    50.1283       1.00    86502.0    28102.0    1.12433
   7335.02    49.9821       1.00    88553.0    33051.0    0.98555
   7355.01    49.8369       1.00    89122.0    34650.0    0.94471
   7375.11    49.6919       1.00    91766.0    36102.0    0.93289
   7395.05    49.5489       1.00    90517.0    35617.0    0.93271
