 0102    Rigaku R-XAS Looper
W                23/11/2023 12:57 -
Comment    :  exafstest
Sample     :  test
Operator   :  exafs
core       :  Cu
edge       :  K
XG         :  20 kV    30 mA
Filament   :  LaB6
Target     :  Mo
Io Counter :  Ar-300
I Counter  :  SC
Attachment :  None
0
0
0
Crystal    :  Si(400)   2d = 2.71500
Monochro   :  omega -0.208    tilt 0.042     z 0.3
Slits      :  DS =  4.00 mm     RS =  2.00 mm     HS = 10 mm
RX-78         Transmission        Repetition = 1
 
Block        Energy        Step/eV       Time/s
    1         10100          10.00            1
    2         10190           1.00            2
    3         10220         100.00            1
    4         11520           1.00            2
    5         11560          10.00            1
    6         11650           1.00            1
 
 Energy(eV)    Angle      time/s       Io          I
  10100.22    53.7592       1.00    77451.0   208717.0   -0.99133
  10110.18    53.7020       1.00    77747.0   209488.0   -0.99121
  10120.33    53.6438       1.00    77823.0   211279.0   -0.99874
  10130.33    53.5866       1.00    78264.0   212388.0   -0.99833
  10140.17    53.5305       1.00    78205.0   213340.0   -1.00355
  10150.21    53.4733       1.00    78173.0   213835.0   -1.00628
  10160.26    53.4162       1.00    78667.0   214400.0   -1.00262
  10170.34    53.3591       1.00    78657.0   215295.0   -1.00691
  10180.26    53.3030       1.00    79205.0   212274.0   -0.98584
  10190.20    53.2469       2.00   158353.0   405453.0   -0.94018
  10191.26    53.2409       2.00   157692.0   399951.0   -0.93070
  10192.33    53.2349       2.00   159210.0   392936.0   -0.90342
  10193.22    53.2299       2.00   158794.0   384446.0   -0.88420
  10194.29    53.2239       2.00   159337.0   374653.0   -0.85498
  10195.17    53.2189       2.00   158855.0   364953.0   -0.83178
  10196.24    53.2129       2.00   158866.0   351263.0   -0.79347
  10197.31    53.2069       2.00   159075.0   334191.0   -0.74234
  10198.20    53.2019       2.00   158600.0   321002.0   -0.70506
  10199.27    53.1958       2.00   158783.0   300904.0   -0.63925
  10200.33    53.1898       2.00   158738.0   281198.0   -0.57180
  10201.22    53.1848       2.00   158648.0   263603.0   -0.50776
  10202.29    53.1788       2.00   158242.0   243204.0   -0.42978
  10203.18    53.1738       2.00   158880.0   226795.0   -0.35590
  10204.25    53.1678       2.00   158113.0   209766.0   -0.28268
  10205.32    53.1618       2.00   158102.0   194523.0   -0.20731
  10206.21    53.1568       2.00   157554.0   185189.0   -0.16161
  10207.28    53.1508       2.00   157836.0   177424.0   -0.11699
  10208.17    53.1458       2.00   158215.0   173146.0   -0.09018
  10209.24    53.1398       2.00   157907.0   171984.0   -0.08540
  10210.31    53.1338       2.00   157979.0   174577.0   -0.09990
  10211.20    53.1288       2.00   158212.0   178118.0   -0.11851
  10212.27    53.1228       2.00   158004.0   185186.0   -0.15874
  10213.35    53.1168       2.00   157005.0   194497.0   -0.21414
  10214.24    53.1118       2.00   158141.0   203249.0   -0.25094
  10215.31    53.1058       2.00   158192.0   212583.0   -0.29552
  10216.20    53.1007       2.00   159087.0   220383.0   -0.32592
  10217.27    53.0947       2.00   159131.0   229517.0   -0.36625
  10218.34    53.0887       2.00   158269.0   237554.0   -0.40610
  10219.24    53.0837       2.00   159156.0   243811.0   -0.42651
  10220.31    53.0777       1.00    79325.0   124811.0   -0.45325
  10320.28    52.5240       1.00    81028.0   138988.0   -0.53959
  10420.18    51.9826       1.00    82384.0   146497.0   -0.57561
  10520.33    51.4513       1.00    84080.0   155702.0   -0.61618
  10620.31    50.9322       1.00    85536.0   165009.0   -0.65706
  10720.23    50.4240       1.00    87229.0   175588.0   -0.69960
  10820.25    49.9258       1.00    88638.0   184848.0   -0.73497
  10920.31    49.4375       1.00    90434.0   195978.0   -0.77338
  11020.38    48.9590       1.00    90829.0   205747.0   -0.81767
  11120.39    48.4902       1.00    92075.0   215228.0   -0.84909
  11220.29    48.0311       1.00    92688.0   224675.0   -0.88542
  11320.25    47.5806       1.00    93970.0   234254.0   -0.91343
  11420.22    47.1388       1.00    94777.0   243453.0   -0.94340
  11520.38    46.7045       2.00   190895.0   491412.0   -0.94556
  11521.29    46.7006       2.00   190908.0   487861.0   -0.93824
  11522.43    46.6957       2.00   191833.0   484935.0   -0.92739
  11523.34    46.6918       2.00   189804.0   481059.0   -0.93000
  11524.25    46.6879       2.00   190363.0   475776.0   -0.91601
  11525.38    46.6830       2.00   190400.0   470058.0   -0.90373
  11526.29    46.6791       2.00   191015.0   465364.0   -0.89047
  11527.43    46.6743       2.00   191245.0   456022.0   -0.86899
  11528.34    46.6704       2.00   190424.0   450141.0   -0.86031
  11529.25    46.6665       2.00   191531.0   442110.0   -0.83651
  11530.38    46.6616       2.00   190911.0   432441.0   -0.81764
  11531.29    46.6577       2.00   191437.0   425525.0   -0.79876
  11532.43    46.6528       2.00   191300.0   416431.0   -0.77788
  11533.34    46.6489       2.00   191200.0   409429.0   -0.76144
  11534.25    46.6450       2.00   190113.0   401827.0   -0.74840
  11535.39    46.6401       2.00   190002.0   394270.0   -0.73000
  11536.30    46.6362       2.00   190384.0   388154.0   -0.71236
  11537.44    46.6314       2.00   190499.0   382444.0   -0.69694
  11538.35    46.6275       2.00   190908.0   377274.0   -0.68118
  11539.26    46.6236       2.00   190230.0   374572.0   -0.67755
  11540.40    46.6187       2.00   191375.0   372561.0   -0.66617
  11541.31    46.6148       2.00   190522.0   370945.0   -0.66629
  11542.22    46.6109       2.00   190559.0   370555.0   -0.66504
  11543.36    46.6060       2.00   189964.0   370543.0   -0.66813
  11544.28    46.6021       2.00   189780.0   372870.0   -0.67536
  11545.42    46.5973       2.00   190315.0   374586.0   -0.67714
  11546.33    46.5934       2.00   190425.0   377977.0   -0.68557
  11547.24    46.5895       2.00   189777.0   380739.0   -0.69626
  11548.38    46.5846       2.00   190471.0   386423.0   -0.70743
  11549.29    46.5807       2.00   189744.0   389654.0   -0.71958
  11550.43    46.5758       2.00   189946.0   393925.0   -0.72942
  11551.35    46.5719       2.00   189886.0   397094.0   -0.73775
  11552.26    46.5680       2.00   190496.0   400965.0   -0.74424
  11553.40    46.5631       2.00   190891.0   406184.0   -0.75510
  11554.32    46.5592       2.00   190178.0   409192.0   -0.76622
  11555.23    46.5553       2.00   190014.0   412716.0   -0.77566
  11556.37    46.5505       2.00   190367.0   415454.0   -0.78042
  11557.29    46.5466       2.00   190568.0   418541.0   -0.78677
  11558.43    46.5417       2.00   189923.0   420904.0   -0.79579
  11559.34    46.5378       2.00   190124.0   422352.0   -0.79816
  11560.26    46.5339       1.00    95339.0   211447.0   -0.79654
  11570.33    46.4910       1.00    95314.0   214979.0   -0.81336
  11580.41    46.4482       1.00    95196.0   214404.0   -0.81192
  11590.29    46.4063       1.00    96482.0   213905.0   -0.79618
  11600.41    46.3634       1.00    97031.0   215405.0   -0.79749
  11610.32    46.3216       1.00    96771.0   215794.0   -0.80198
  11620.24    46.2797       1.00    95856.0   215675.0   -0.81093
  11630.41    46.2369       1.00    95748.0   216691.0   -0.81675
  11640.37    46.1950       1.00    95784.0   217832.0   -0.82163
